{"pdf_atom_id": "ig34_p0351_a019", "pdf_atom_type": "TABLE_ROW", "pdf_source": "SDTMIG_v3.4", "pdf_page": 351, "pdf_parent_section": "§6.3.12.2 Tumor/Lesion Results (TR)", "pdf_verbatim": "| VISITDY | Planned Study Day of Visit | Num | | Timing | Planned study day of the visit based upon RFSTDTC in Demographics. | Perm |", "figure_ref": null, "candidates": [{"md_atom_id": "md_dmTR_ex_a026", "md_file": "knowledge_base/domains/TR/examples.md", "md_atom_type": "TABLE_ROW", "md_parent_section": "§TR.1 [Example 2 (continued from TU)]", "md_verbatim": "| 12 | ABC | TR | 44444 | 12 | TARGET | A2 | T04.1 | DIAMETER | Diameter | 6 | mm | 6 | 6 | mm | | | PHOTOGRAPHY | INVESTIGATOR | 40 | WEEK 6 | 2010-02-20 | 48 |", "score": 0.4324, "match_basis": "verbatim_token+domain_route:TR"}, {"md_atom_id": "md_dmTR_ex_a027", "md_file": "knowledge_base/domains/TR/examples.md", "md_atom_type": "TABLE_ROW", "md_parent_section": "§TR.1 [Example 2 (continued from TU)]", "md_verbatim": "| 13 | ABC | TR | 44444 | 13 | TARGET | A2 | T04.2 | DIAMETER | Diameter | 7 | mm | 7 | 7 | mm | | | PHOTOGRAPHY | INVESTIGATOR | 40 | WEEK 6 | 2010-02-20 | 48 |", "score": 0.4324, "match_basis": "verbatim_token+domain_route:TR"}, {"md_atom_id": "md_dmTR_ex_a018", "md_file": "knowledge_base/domains/TR/examples.md", "md_atom_type": "TABLE_ROW", "md_parent_section": "§TR.1 [Example 2 (continued from TU)]", "md_verbatim": "| 4 | ABC | TR | 44444 | 4 | TARGET | A1 | T04 | DIAMETER | Diameter | 14 | mm | 14 | 14 | mm | | | PHOTOGRAPHY | INVESTIGATOR | 10 | SCREEN | 2010-01-03 | -1 |", "score": 0.4316, "match_basis": "verbatim_token+domain_route:TR"}, {"md_atom_id": "md_dmTR_ex_a039", "md_file": "knowledge_base/domains/TR/examples.md", "md_atom_type": "TABLE_ROW", "md_parent_section": "§TR.1 [Example 2 (continued from TU)]", "md_verbatim": "| 25 | ABC | TR | 44444 | 25 | TARGET | A3 | T04 | DIAMETER | Diameter | | | | | | NOT DONE | NOT ASSESSABLE: IMAGE OBSCURED TUMOR | PHOTOGRAPHY | INVESTIGATOR | 60 | WEEK 12 | | |", "score": 0.4253, "match_basis": "verbatim_token+domain_route:TR"}, {"md_atom_id": "md_dmTR_ex_a070", "md_file": "knowledge_base/domains/TR/examples.md", "md_atom_type": "TABLE_ROW", "md_parent_section": "§TR.2 [Example 3 (continued from TU)]", "md_verbatim": "| 15 | ABC | TR | 55555 | 15 | TARGET | A2 | | PCBSD | Percent Change From Baseline in Sum of Diameters | -50 | % | -50 | -50 | % | | ACE IMAGING | INDEPENDENT ASSESSOR | RADIOLOGIST 1 | 40 | WEEK 6 | | |", "score": 0.4235, "match_basis": "verbatim_token+domain_route:TR"}], "candidate_count": 5, "zero_candidate": false}
{"pdf_atom_id": "ig34_p0351_a020", "pdf_atom_type": "TABLE_ROW", "pdf_source": "SDTMIG_v3.4", "pdf_page": 351, "pdf_parent_section": "§6.3.12.2 Tumor/Lesion Results (TR)", "pdf_verbatim": "| TAETORD | Planned Order of Element within Arm | Num | | Timing | Epoch associated with the date/time at which the assessment was made. | Perm |", "figure_ref": null, "candidates": [{"md_atom_id": "md_dmTR_ex_a073", "md_file": "knowledge_base/domains/TR/examples.md", "md_atom_type": "TABLE_ROW", "md_parent_section": "§TR.2 [Example 3 (continued from TU)]", "md_verbatim": "| 18 | ABC | TR | 55555 | 18 | NON-TARGET | A2 | R1-NT02 | TUMSTATE | Tumor State | ABSENT | | ABSENT | | | MRI | ACE IMAGING | INDEPENDENT ASSESSOR | RADIOLOGIST 1 | 40 | WEEK 6 | 2010-02-18 | 46 |", "score": 0.448, "match_basis": "verbatim_token+domain_route:TR"}, {"md_atom_id": "md_dmTR_ex_a068", "md_file": "knowledge_base/domains/TR/examples.md", "md_atom_type": "TABLE_ROW", "md_parent_section": "§TR.2 [Example 3 (continued from TU)]", "md_verbatim": "| 13 | ABC | TR | 55555 | 13 | TARGET | A2 | | LNSTATE | Lymph Nodes State | PATHOLOGICAL | | PATHOLOGICAL | | | | ACE IMAGING | INDEPENDENT ASSESSOR | RADIOLOGIST 1 | 40 | WEEK 6 | | |", "score": 0.4475, "match_basis": "verbatim_token+domain_route:TR"}, {"md_atom_id": "md_dmTR_ex_a072", "md_file": "knowledge_base/domains/TR/examples.md", "md_atom_type": "TABLE_ROW", "md_parent_section": "§TR.2 [Example 3 (continued from TU)]", "md_verbatim": "| 17 | ABC | TR | 55555 | 17 | NON-TARGET | A2 | R1-NT01 | TUMSTATE | Tumor State | ABSENT | | ABSENT | | | CT SCAN | ACE IMAGING | INDEPENDENT ASSESSOR | RADIOLOGIST 1 | 40 | WEEK 6 | 2010-02-19 | 47 |", "score": 0.4475, "match_basis": "verbatim_token+domain_route:TR"}, {"md_atom_id": "md_dmTR_ex_a062", "md_file": "knowledge_base/domains/TR/examples.md", "md_atom_type": "TABLE_ROW", "md_parent_section": "§TR.2 [Example 3 (continued from TU)]", "md_verbatim": "| 7 | ABC | TR | 55555 | 7 | NON-TARGET | A1 | R1-NT02 | TUMSTATE | Tumor State | PRESENT | | PRESENT | | | MRI | ACE IMAGING | INDEPENDENT ASSESSOR | RADIOLOGIST 1 | 10 | SCREEN | 2010-01-02 | 1 |", "score": 0.4466, "match_basis": "verbatim_token+domain_route:TR"}, {"md_atom_id": "md_dmTR_ex_a061", "md_file": "knowledge_base/domains/TR/examples.md", "md_atom_type": "TABLE_ROW", "md_parent_section": "§TR.2 [Example 3 (continued from TU)]", "md_verbatim": "| 6 | ABC | TR | 55555 | 6 | NON-TARGET | A1 | R1-NT01 | TUMSTATE | Tumor State | PRESENT | | PRESENT | | | CT SCAN | ACE IMAGING | INDEPENDENT ASSESSOR | RADIOLOGIST 1 | 10 | SCREEN | 2010-01-01 | -2 |", "score": 0.4462, "match_basis": "verbatim_token+domain_route:TR"}], "candidate_count": 5, "zero_candidate": false}
{"pdf_atom_id": "ig34_p0351_a021", "pdf_atom_type": "TABLE_ROW", "pdf_source": "SDTMIG_v3.4", "pdf_page": 351, "pdf_parent_section": "§6.3.12.2 Tumor/Lesion Results (TR)", "pdf_verbatim": "| EPOCH | Epoch | Char | (EPOCH) | Timing | Epoch associated with the element in the planned sequence of elements for the arm to which the subject was assigned. | Perm |", "figure_ref": null, "candidates": [{"md_atom_id": "md_dmTR_ex_a071", "md_file": "knowledge_base/domains/TR/examples.md", "md_atom_type": "TABLE_ROW", "md_parent_section": "§TR.2 [Example 3 (continued from TU)]", "md_verbatim": "| 16 | ABC | TR | 55555 | 16 | TARGET | A2 | | PCNSD | Percent Change Nadir in Sum of Diameters | -50 | % | -50 | -50 | % | | ACE IMAGING | INDEPENDENT ASSESSOR | RADIOLOGIST 1 | 40 | WEEK 6 | | |", "score": 0.434, "match_basis": "verbatim_token+domain_route:TR"}, {"md_atom_id": "md_dmTR_ex_a074", "md_file": "knowledge_base/domains/TR/examples.md", "md_atom_type": "TABLE_ROW", "md_parent_section": "§TR.2 [Example 3 (continued from TU)]", "md_verbatim": "| 19 | ABC | TR | 55555 | 19 | NON-TARGET | A2 | R1-NEW01 | TUMSTATE | Tumor State | EQUIVOCAL | | EQUIVOCAL | | | | ACE IMAGING | INDEPENDENT ASSESSOR | RADIOLOGIST 1 | 40 | WEEK 6 | 2010-02-18 | |", "score": 0.434, "match_basis": "verbatim_token+domain_route:TR"}, {"md_atom_id": "md_dmTR_ex_a083", "md_file": "knowledge_base/domains/TR/examples.md", "md_atom_type": "TABLE_ROW", "md_parent_section": "§TR.2 [Example 3 (continued from TU)]", "md_verbatim": "| 28 | ABC | TR | 55555 | 28 | TARGET | A3 | | PCNSD | Percent Change Nadir in Sum of Diameters | -50 | % | -50 | -50 | % | | ACE IMAGING | INDEPENDENT ASSESSOR | RADIOLOGIST 1 | 60 | WEEK 12 | | |", "score": 0.434, "match_basis": "verbatim_token+domain_route:TR"}, {"md_atom_id": "md_dmTR_ex_a070", "md_file": "knowledge_base/domains/TR/examples.md", "md_atom_type": "TABLE_ROW", "md_parent_section": "§TR.2 [Example 3 (continued from TU)]", "md_verbatim": "| 15 | ABC | TR | 55555 | 15 | TARGET | A2 | | PCBSD | Percent Change From Baseline in Sum of Diameters | -50 | % | -50 | -50 | % | | ACE IMAGING | INDEPENDENT ASSESSOR | RADIOLOGIST 1 | 40 | WEEK 6 | | |", "score": 0.4321, "match_basis": "verbatim_token+domain_route:TR"}, {"md_atom_id": "md_dmTR_ex_a082", "md_file": "knowledge_base/domains/TR/examples.md", "md_atom_type": "TABLE_ROW", "md_parent_section": "§TR.2 [Example 3 (continued from TU)]", "md_verbatim": "| 27 | ABC | TR | 55555 | 27 | TARGET | A3 | | PCBSD | Percent Change From Baseline in Sum of Diameters | -50 | % | -50 | -50 | % | | ACE IMAGING | INDEPENDENT ASSESSOR | RADIOLOGIST 1 | 60 | WEEK 12 | | |", "score": 0.4321, "match_basis": "verbatim_token+domain_route:TR"}], "candidate_count": 5, "zero_candidate": false}
{"pdf_atom_id": "ig34_p0351_a022", "pdf_atom_type": "TABLE_ROW", "pdf_source": "SDTMIG_v3.4", "pdf_page": 351, "pdf_parent_section": "§6.3.12.2 Tumor/Lesion Results (TR)", "pdf_verbatim": "| TRDTC | Date/Time of Tumor/Lesion Measurement | Char | ISO 8601 datetime or interval | Timing | The date of the scan/image/physical exam. TRDTC does not represent the date that the image was read to identify tumors/lesions. TRDTC also does not represent the VISIT date. | Exp |", "figure_ref": null, "candidates": [{"md_atom_id": "md_dmTR_ex_a061", "md_file": "knowledge_base/domains/TR/examples.md", "md_atom_type": "TABLE_ROW", "md_parent_section": "§TR.2 [Example 3 (continued from TU)]", "md_verbatim": "| 6 | ABC | TR | 55555 | 6 | NON-TARGET | A1 | R1-NT01 | TUMSTATE | Tumor State | PRESENT | | PRESENT | | | CT SCAN | ACE IMAGING | INDEPENDENT ASSESSOR | RADIOLOGIST 1 | 10 | SCREEN | 2010-01-01 | -2 |", "score": 0.4732, "match_basis": "verbatim_token+domain_route:TR"}, {"md_atom_id": "md_dmTR_ex_a062", "md_file": "knowledge_base/domains/TR/examples.md", "md_atom_type": "TABLE_ROW", "md_parent_section": "§TR.2 [Example 3 (continued from TU)]", "md_verbatim": "| 7 | ABC | TR | 55555 | 7 | NON-TARGET | A1 | R1-NT02 | TUMSTATE | Tumor State | PRESENT | | PRESENT | | | MRI | ACE IMAGING | INDEPENDENT ASSESSOR | RADIOLOGIST 1 | 10 | SCREEN | 2010-01-02 | 1 |", "score": 0.4629, "match_basis": "verbatim_token+domain_route:TR"}, {"md_atom_id": "md_dmTR_ex_a034", "md_file": "knowledge_base/domains/TR/examples.md", "md_atom_type": "TABLE_ROW", "md_parent_section": "§TR.1 [Example 2 (continued from TU)]", "md_verbatim": "| 20 | ABC | TR | 44444 | 20 | NON-TARGET | A2 | NT01 | TUMSTATE | Tumor State | PRESENT | | PRESENT | | | | | CT SCAN | INVESTIGATOR | 40 | WEEK 6 | 2010-02-18 | 46 |", "score": 0.4617, "match_basis": "verbatim_token+domain_route:TR"}, {"md_atom_id": "md_dmTR_ex_a021", "md_file": "knowledge_base/domains/TR/examples.md", "md_atom_type": "TABLE_ROW", "md_parent_section": "§TR.1 [Example 2 (continued from TU)]", "md_verbatim": "| 7 | ABC | TR | 44444 | 7 | NON-TARGET | A1 | NT01 | TUMSTATE | Tumor State | PRESENT | | PRESENT | | | | | CT SCAN | INVESTIGATOR | 10 | SCREEN | 2010-01-01 | -2 |", "score": 0.4606, "match_basis": "verbatim_token+domain_route:TR"}, {"md_atom_id": "md_dmTR_ex_a072", "md_file": "knowledge_base/domains/TR/examples.md", "md_atom_type": "TABLE_ROW", "md_parent_section": "§TR.2 [Example 3 (continued from TU)]", "md_verbatim": "| 17 | ABC | TR | 55555 | 17 | NON-TARGET | A2 | R1-NT01 | TUMSTATE | Tumor State | ABSENT | | ABSENT | | | CT SCAN | ACE IMAGING | INDEPENDENT ASSESSOR | RADIOLOGIST 1 | 40 | WEEK 6 | 2010-02-19 | 47 |", "score": 0.4585, "match_basis": "verbatim_token+domain_route:TR"}], "candidate_count": 5, "zero_candidate": false}
{"pdf_atom_id": "ig34_p0352_a001", "pdf_atom_type": "TABLE_ROW", "pdf_source": "SDTMIG_v3.4", "pdf_page": 352, "pdf_parent_section": "§6.3.12.2 Tumor/Lesion Results (TR)", "pdf_verbatim": "| TRDY | Study Day of Tumor/Lesion Measurement | Num | | Timing | Study day of the scan/image/physical exam, measured as integer days. Algorithm for calculations must be relative to the sponsor-defined RFSTDTC variable in Demographics. | Perm |", "figure_ref": null, "candidates": [{"md_atom_id": "md_dmTR_ex_a039", "md_file": "knowledge_base/domains/TR/examples.md", "md_atom_type": "TABLE_ROW", "md_parent_section": "§TR.1 [Example 2 (continued from TU)]", "md_verbatim": "| 25 | ABC | TR | 44444 | 25 | TARGET | A3 | T04 | DIAMETER | Diameter | | | | | | NOT DONE | NOT ASSESSABLE: IMAGE OBSCURED TUMOR | PHOTOGRAPHY | INVESTIGATOR | 60 | WEEK 12 | | |", "score": 0.4625, "match_basis": "verbatim_token+domain_route:TR"}, {"md_atom_id": "md_dmTR_ex_a072", "md_file": "knowledge_base/domains/TR/examples.md", "md_atom_type": "TABLE_ROW", "md_parent_section": "§TR.2 [Example 3 (continued from TU)]", "md_verbatim": "| 17 | ABC | TR | 55555 | 17 | NON-TARGET | A2 | R1-NT01 | TUMSTATE | Tumor State | ABSENT | | ABSENT | | | CT SCAN | ACE IMAGING | INDEPENDENT ASSESSOR | RADIOLOGIST 1 | 40 | WEEK 6 | 2010-02-19 | 47 |", "score": 0.4408, "match_basis": "verbatim_token+domain_route:TR"}, {"md_atom_id": "md_dmTR_ex_a061", "md_file": "knowledge_base/domains/TR/examples.md", "md_atom_type": "TABLE_ROW", "md_parent_section": "§TR.2 [Example 3 (continued from TU)]", "md_verbatim": "| 6 | ABC | TR | 55555 | 6 | NON-TARGET | A1 | R1-NT01 | TUMSTATE | Tumor State | PRESENT | | PRESENT | | | CT SCAN | ACE IMAGING | INDEPENDENT ASSESSOR | RADIOLOGIST 1 | 10 | SCREEN | 2010-01-01 | -2 |", "score": 0.44, "match_basis": "verbatim_token+domain_route:TR"}, {"md_atom_id": "md_dmTR_ex_a040", "md_file": "knowledge_base/domains/TR/examples.md", "md_atom_type": "TABLE_ROW", "md_parent_section": "§TR.1 [Example 2 (continued from TU)]", "md_verbatim": "| 26 | ABC | TR | 44444 | 26 | NON-TARGET | A3 | NT01 | TUMSTATE | Tumor State | | | | | | NOT DONE | POOR IMAGE INEQUALITY | CT SCAN | INVESTIGATOR | 60 | WEEK 12 | 2010-04-02 | 88 |", "score": 0.438, "match_basis": "verbatim_token+domain_route:TR"}, {"md_atom_id": "md_dmTR_ex_a074", "md_file": "knowledge_base/domains/TR/examples.md", "md_atom_type": "TABLE_ROW", "md_parent_section": "§TR.2 [Example 3 (continued from TU)]", "md_verbatim": "| 19 | ABC | TR | 55555 | 19 | NON-TARGET | A2 | R1-NEW01 | TUMSTATE | Tumor State | EQUIVOCAL | | EQUIVOCAL | | | | ACE IMAGING | INDEPENDENT ASSESSOR | RADIOLOGIST 1 | 40 | WEEK 6 | 2010-02-18 | |", "score": 0.4358, "match_basis": "verbatim_token+domain_route:TR"}], "candidate_count": 5, "zero_candidate": false}
{"pdf_atom_id": "ig34_p0352_a002", "pdf_atom_type": "SENTENCE", "pdf_source": "SDTMIG_v3.4", "pdf_page": 352, "pdf_parent_section": "§6.3.12.2 Tumor/Lesion Results (TR)", "pdf_verbatim": "1In this column, an asterisk (*) indicates that the variable may be subject to controlled terminology. CDISC/NCI codelist values are enclosed in parentheses.", "figure_ref": null, "candidates": [{"md_atom_id": "md_dmTR_ex_a005", "md_file": "knowledge_base/domains/TR/examples.md", "md_atom_type": "SENTENCE", "md_parent_section": "§TR.1 [Example 2 (continued from TU)]", "md_verbatim": "In this example, when TRTEST = \"Tumor State\" and TRORRES = \"ABSENT\", it indicates that the target lymph node lesion was no longer pathological (i.e., diameter reduced below 10mm).", "score": 0.4766, "match_basis": "verbatim_token+domain_route:TR"}, {"md_atom_id": "md_dmTR_assn_a005", "md_file": "knowledge_base/domains/TR/assumptions.md", "md_atom_type": "SENTENCE", "md_parent_section": "§TR [TR — Assumptions]", "md_verbatim": "A typical record in the TR domain contains the following information: a unique tumor/lesion/location of interest ID value, test and result, method used, role of the individual making the assessment, and timing information.", "score": 0.4706, "match_basis": "verbatim_token+domain_route:TR"}, {"md_atom_id": "md_dmTR_assn_a006", "md_file": "knowledge_base/domains/TR/assumptions.md", "md_atom_type": "SENTENCE", "md_parent_section": "§TR [TR — Assumptions]", "md_verbatim": "Clinically accepted evaluation criteria expect that a tumor/lesion/location of interest identified by the ID is the same tumor/lesion/location of interest at each subsequent assessment.", "score": 0.46, "match_basis": "verbatim_token+domain_route:TR"}, {"md_atom_id": "md_dmTR_assn_a017", "md_file": "knowledge_base/domains/TR/assumptions.md", "md_atom_type": "LIST_ITEM", "md_parent_section": "§TR [TR — Assumptions]", "md_verbatim": "6. The evaluator-specified variable (TREVALID) is used in conjunction with TREVAL to provide additional detail of who is providing measurements or assessments (e.g., TREVAL = \"INDEPENDENT ASSESSOR\", TREVALID = \"RADIOLOGIST 1\"). The TREVALID variable is subject to controlled terminology.", "score": 0.4512, "match_basis": "verbatim_token+domain_route:TR"}, {"md_atom_id": "md_dmTR_assn_a002", "md_file": "knowledge_base/domains/TR/assumptions.md", "md_atom_type": "SENTENCE", "md_parent_section": "§TR [TR — Assumptions]", "md_verbatim": "A findings domain that represents quantitative measurements and/or qualitative assessments of the tumors, lesions, or locations of interest identified in the Tumor/Lesion Identification (TU) domain.", "score": 0.4462, "match_basis": "verbatim_token+domain_route:TR"}], "candidate_count": 5, "zero_candidate": false}
{"pdf_atom_id": "ig34_p0352_a003", "pdf_atom_type": "HEADING", "pdf_source": "SDTMIG_v3.4", "pdf_page": 352, "pdf_parent_section": "§6.3.12.2 Tumor/Lesion Results (TR)", "pdf_verbatim": "TR – Assumptions", "figure_ref": null, "candidates": [{"md_atom_id": "md_dmTR_assn_a001", "md_file": "knowledge_base/domains/TR/assumptions.md", "md_atom_type": "HEADING", "md_parent_section": "§TR [TR — Assumptions]", "md_verbatim": "# TR — Assumptions", "score": 1.0, "match_basis": "verbatim_token+domain_route:TR"}, {"md_atom_id": "md_dmTR_ex_a001", "md_file": "knowledge_base/domains/TR/examples.md", "md_atom_type": "HEADING", "md_parent_section": "§TR [TR — Examples]", "md_verbatim": "# TR — Examples", "score": 0.4, "match_basis": "verbatim_token+domain_route:TR"}, {"md_atom_id": "md_dmTR_ex_a003", "md_file": "knowledge_base/domains/TR/examples.md", "md_atom_type": "HEADING", "md_parent_section": "§TR [TR — Examples]", "md_verbatim": "## Example 2 (continued from TU)", "score": 0.4, "match_basis": "verbatim_token+domain_route:TR"}, {"md_atom_id": "md_dmTR_ex_a048", "md_file": "knowledge_base/domains/TR/examples.md", "md_atom_type": "HEADING", "md_parent_section": "§TR [TR — Examples]", "md_verbatim": "## Example 3 (continued from TU)", "score": 0.4, "match_basis": "verbatim_token+domain_route:TR"}], "candidate_count": 4, "zero_candidate": false}
{"pdf_atom_id": "ig34_p0352_a004", "pdf_atom_type": "LIST_ITEM", "pdf_source": "SDTMIG_v3.4", "pdf_page": 352, "pdf_parent_section": "TR – Assumptions", "pdf_verbatim": "TRLNKID is used to relate records in the TR domain to an identification record in TU domain. The organization of data across the TU and TR domains requires a RELREC relationship to link the related data rows. A dataset-to-dataset link would be the most appropriate linking mechanism. Utilizing 1 of the existing ID variables is not possible, because --GRPID, --REFID, and --SPID may be used for other purposes, per the SDTM. The --LNKID variable is used for values that support a RELREC dataset-to-dataset relationship and to provide a unique code for each identified tumor/lesion/location of interest.", "figure_ref": null, "candidates": [{"md_atom_id": "md_dmTR_assn_a009", "md_file": "knowledge_base/domains/TR/assumptions.md", "md_atom_type": "LIST_ITEM", "md_parent_section": "§TR [TR — Assumptions]", "md_verbatim": "1. TRLNKID is used to relate records in the TR domain to an identification record in TU domain. The organization of data across the TU and TR domains requires a RELREC relationship to link the related data rows. A dataset-to-dataset link would be the most appropriate linking mechanism. Utilizing 1 of the existing ID variables is not possible, because --GRPID, --REFID, and --SPID may be used for other purposes, per the SDTM. The --LNKID variable is used for values that support a RELREC dataset-to-dataset relationship and to provide a unique code for each identified tumor/lesion/location of interest.", "score": 1.0, "match_basis": "verbatim_token+domain_route:TR"}, {"md_atom_id": "md_dmTR_assn_a010", "md_file": "knowledge_base/domains/TR/assumptions.md", "md_atom_type": "LIST_ITEM", "md_parent_section": "§TR [TR — Assumptions]", "md_verbatim": "2. TRLNKGRP is used to relate records in the TR domain to a response assessment record in the RS domain. The organization of data across the TR and RS domains requires a RELREC relationship to link the related data rows. A dataset-to-dataset link would be the most appropriate linking mechanism. Utilizing 1 of the existing ID variables is not possible because --GRPID, --REFID, and --SPID may be used for other purposes, per the SDTM. The --LNKGRP variable is used for values that support a RELREC dataset-to-dataset relationship and to provide a unique code for each response and associated tumor/lesion measurements/assessments.", "score": 0.8732, "match_basis": "verbatim_token+domain_route:TR"}, {"md_atom_id": "md_dmTR_assn_a016", "md_file": "knowledge_base/domains/TR/assumptions.md", "md_atom_type": "LIST_ITEM", "md_parent_section": "§TR [TR — Assumptions]", "md_verbatim": "5. The acceptance flag variable (TRACPTFL) identifies those records that have been determined to be the accepted assessments/measurements by an independent assessor. This flag would be provided by an independent assessor and when multiple assessors (e.g., \"RADIOLOGIST 1\", \"RADIOLOGIST 2\", \"ADJUDICATOR\") provide assessments or evaluations at the same time point or an overall evaluation. This flag should not be used by a sponsor for any other purpose. It is not expected that the TRACPTFL flag would be populated by the sponsor; instead, that type of record selection should be handled in the analysis dataset (ADaM).", "score": 0.524, "match_basis": "verbatim_token+domain_route:TR"}, {"md_atom_id": "md_dmTR_assn_a012", "md_file": "knowledge_base/domains/TR/assumptions.md", "md_atom_type": "LIST_ITEM", "md_parent_section": "§TR [TR — Assumptions]", "md_verbatim": "4. In order to support data value standardization it is sometimes appropriate to standardize an original result value in TRORRES to a standardized result value in TRSTRESC and TRSTRESN. For example, in the published RECIST criteria, a standardized value of 5 mm is used in the calculation to determine response when a tumor is \"too small to measure.\" The original or collected value \"TOO SMALL TO MEASURE\" should be represented in the TRORRES variable and the standardized value should be represented in the TRSTRESC and TRSTRESN variables. The information should be represented on a single row of data showing the standardization between the original result, TRORRES, and the standard results, TRSTRESC/TRSTRESN, as follows:", "score": 0.512, "match_basis": "verbatim_token+domain_route:TR"}, {"md_atom_id": "md_dmTR_assn_a011", "md_file": "knowledge_base/domains/TR/assumptions.md", "md_atom_type": "LIST_ITEM", "md_parent_section": "§TR [TR — Assumptions]", "md_verbatim": "3. TRTESTCD/TRTEST values for this domain are published as Controlled Terminology. For some TRTESTCD/TRTEST values, CDISC CT includes codelists for use with TRORRES. The associations between the test values and results are in the Oncology codetable, which, along with the Controlled Terminology Rules for Oncology, is available at https://www.cdisc.org/standards/terminology/controlled-terminology. The sponsor should not derive results for any test (e.g., percent change from nadir in sum of diameter) if the result was not collected. Tests would be included in the domain only if those data points have been collected on a CRF, presented by the CRF collection system, or supplied by an external assessor as part of an electronic data transfer. It is not intended that the sponsor would create derived records to supply those values in the TR domain. Derived records/results (outside the CRF) should be provided in the analysis dataset (ADaM).", "score": 0.5031, "match_basis": "verbatim_token+domain_route:TR"}], "candidate_count": 5, "zero_candidate": false}
{"pdf_atom_id": "ig34_p0352_a005", "pdf_atom_type": "LIST_ITEM", "pdf_source": "SDTMIG_v3.4", "pdf_page": 352, "pdf_parent_section": "TR – Assumptions", "pdf_verbatim": "TRLNKGRP is used to relate records in the TR domain to a response assessment record in the RS domain. The organization of data across the TR and RS domains requires a RELREC relationship to link the related data rows. A dataset-to-dataset link would be the most appropriate linking mechanism. Utilizing 1 of the existing ID variables is not possible because --GRPID, --REFID, and --SPID may be used for other purposes, per the SDTM. The --LNKGRP variable is used for values that support a RELREC dataset-to-dataset relationship and to provide a unique code for each response and associated tumor/lesion measurements/assessments.", "figure_ref": null, "candidates": [{"md_atom_id": "md_dmTR_assn_a010", "md_file": "knowledge_base/domains/TR/assumptions.md", "md_atom_type": "LIST_ITEM", "md_parent_section": "§TR [TR — Assumptions]", "md_verbatim": "2. TRLNKGRP is used to relate records in the TR domain to a response assessment record in the RS domain. The organization of data across the TR and RS domains requires a RELREC relationship to link the related data rows. A dataset-to-dataset link would be the most appropriate linking mechanism. Utilizing 1 of the existing ID variables is not possible because --GRPID, --REFID, and --SPID may be used for other purposes, per the SDTM. The --LNKGRP variable is used for values that support a RELREC dataset-to-dataset relationship and to provide a unique code for each response and associated tumor/lesion measurements/assessments.", "score": 1.0, "match_basis": "verbatim_token+domain_route:TR"}, {"md_atom_id": "md_dmTR_assn_a009", "md_file": "knowledge_base/domains/TR/assumptions.md", "md_atom_type": "LIST_ITEM", "md_parent_section": "§TR [TR — Assumptions]", "md_verbatim": "1. TRLNKID is used to relate records in the TR domain to an identification record in TU domain. The organization of data across the TU and TR domains requires a RELREC relationship to link the related data rows. A dataset-to-dataset link would be the most appropriate linking mechanism. Utilizing 1 of the existing ID variables is not possible, because --GRPID, --REFID, and --SPID may be used for other purposes, per the SDTM. The --LNKID variable is used for values that support a RELREC dataset-to-dataset relationship and to provide a unique code for each identified tumor/lesion/location of interest.", "score": 0.8732, "match_basis": "verbatim_token+domain_route:TR"}, {"md_atom_id": "md_dmTR_assn_a016", "md_file": "knowledge_base/domains/TR/assumptions.md", "md_atom_type": "LIST_ITEM", "md_parent_section": "§TR [TR — Assumptions]", "md_verbatim": "5. The acceptance flag variable (TRACPTFL) identifies those records that have been determined to be the accepted assessments/measurements by an independent assessor. This flag would be provided by an independent assessor and when multiple assessors (e.g., \"RADIOLOGIST 1\", \"RADIOLOGIST 2\", \"ADJUDICATOR\") provide assessments or evaluations at the same time point or an overall evaluation. This flag should not be used by a sponsor for any other purpose. It is not expected that the TRACPTFL flag would be populated by the sponsor; instead, that type of record selection should be handled in the analysis dataset (ADaM).", "score": 0.5405, "match_basis": "verbatim_token+domain_route:TR"}, {"md_atom_id": "md_dmTR_assn_a012", "md_file": "knowledge_base/domains/TR/assumptions.md", "md_atom_type": "LIST_ITEM", "md_parent_section": "§TR [TR — Assumptions]", "md_verbatim": "4. In order to support data value standardization it is sometimes appropriate to standardize an original result value in TRORRES to a standardized result value in TRSTRESC and TRSTRESN. For example, in the published RECIST criteria, a standardized value of 5 mm is used in the calculation to determine response when a tumor is \"too small to measure.\" The original or collected value \"TOO SMALL TO MEASURE\" should be represented in the TRORRES variable and the standardized value should be represented in the TRSTRESC and TRSTRESN variables. The information should be represented on a single row of data showing the standardization between the original result, TRORRES, and the standard results, TRSTRESC/TRSTRESN, as follows:", "score": 0.5268, "match_basis": "verbatim_token+domain_route:TR"}, {"md_atom_id": "md_dmTR_assn_a011", "md_file": "knowledge_base/domains/TR/assumptions.md", "md_atom_type": "LIST_ITEM", "md_parent_section": "§TR [TR — Assumptions]", "md_verbatim": "3. TRTESTCD/TRTEST values for this domain are published as Controlled Terminology. For some TRTESTCD/TRTEST values, CDISC CT includes codelists for use with TRORRES. The associations between the test values and results are in the Oncology codetable, which, along with the Controlled Terminology Rules for Oncology, is available at https://www.cdisc.org/standards/terminology/controlled-terminology. The sponsor should not derive results for any test (e.g., percent change from nadir in sum of diameter) if the result was not collected. Tests would be included in the domain only if those data points have been collected on a CRF, presented by the CRF collection system, or supplied by an external assessor as part of an electronic data transfer. It is not intended that the sponsor would create derived records to supply those values in the TR domain. Derived records/results (outside the CRF) should be provided in the analysis dataset (ADaM).", "score": 0.5109, "match_basis": "verbatim_token+domain_route:TR"}], "candidate_count": 5, "zero_candidate": false}
{"pdf_atom_id": "ig34_p0352_a006", "pdf_atom_type": "LIST_ITEM", "pdf_source": "SDTMIG_v3.4", "pdf_page": 352, "pdf_parent_section": "TR – Assumptions", "pdf_verbatim": "TRTESTCD/TRTEST values for this domain are published as Controlled Terminology. For some TRTESTCD/TRTEST values, CDISC CT includes codelists for use with TRORRES. The associations between the test values and results are in the Oncology codetable, which, along with the Controlled Terminology Rules for Oncology, is available at https://www.cdisc.org/standards/terminology/controlled-terminology. The sponsor should not derive results for any test (e.g., percent change from nadir in sum of diameter) if the result was not collected. Tests would be included in the domain only if those data points have been collected on a CRF, presented by the CRF collection system, or supplied by an external assessor as part of an electronic data transfer. It is not intended that the sponsor would create derived records to supply those values in the TR domain. Derived records/results (outside the CRF) should be provided in the analysis dataset (ADaM).", "figure_ref": null, "candidates": [{"md_atom_id": "md_dmTR_assn_a011", "md_file": "knowledge_base/domains/TR/assumptions.md", "md_atom_type": "LIST_ITEM", "md_parent_section": "§TR [TR — Assumptions]", "md_verbatim": "3. TRTESTCD/TRTEST values for this domain are published as Controlled Terminology. For some TRTESTCD/TRTEST values, CDISC CT includes codelists for use with TRORRES. The associations between the test values and results are in the Oncology codetable, which, along with the Controlled Terminology Rules for Oncology, is available at https://www.cdisc.org/standards/terminology/controlled-terminology. The sponsor should not derive results for any test (e.g., percent change from nadir in sum of diameter) if the result was not collected. Tests would be included in the domain only if those data points have been collected on a CRF, presented by the CRF collection system, or supplied by an external assessor as part of an electronic data transfer. It is not intended that the sponsor would create derived records to supply those values in the TR domain. Derived records/results (outside the CRF) should be provided in the analysis dataset (ADaM).", "score": 1.0, "match_basis": "verbatim_token+domain_route:TR"}, {"md_atom_id": "md_dmTR_assn_a016", "md_file": "knowledge_base/domains/TR/assumptions.md", "md_atom_type": "LIST_ITEM", "md_parent_section": "§TR [TR — Assumptions]", "md_verbatim": "5. The acceptance flag variable (TRACPTFL) identifies those records that have been determined to be the accepted assessments/measurements by an independent assessor. This flag would be provided by an independent assessor and when multiple assessors (e.g., \"RADIOLOGIST 1\", \"RADIOLOGIST 2\", \"ADJUDICATOR\") provide assessments or evaluations at the same time point or an overall evaluation. This flag should not be used by a sponsor for any other purpose. It is not expected that the TRACPTFL flag would be populated by the sponsor; instead, that type of record selection should be handled in the analysis dataset (ADaM).", "score": 0.564, "match_basis": "verbatim_token+domain_route:TR"}, {"md_atom_id": "md_dmTR_assn_a012", "md_file": "knowledge_base/domains/TR/assumptions.md", "md_atom_type": "LIST_ITEM", "md_parent_section": "§TR [TR — Assumptions]", "md_verbatim": "4. In order to support data value standardization it is sometimes appropriate to standardize an original result value in TRORRES to a standardized result value in TRSTRESC and TRSTRESN. For example, in the published RECIST criteria, a standardized value of 5 mm is used in the calculation to determine response when a tumor is \"too small to measure.\" The original or collected value \"TOO SMALL TO MEASURE\" should be represented in the TRORRES variable and the standardized value should be represented in the TRSTRESC and TRSTRESN variables. The information should be represented on a single row of data showing the standardization between the original result, TRORRES, and the standard results, TRSTRESC/TRSTRESN, as follows:", "score": 0.5441, "match_basis": "verbatim_token+domain_route:TR"}, {"md_atom_id": "md_dmTR_assn_a010", "md_file": "knowledge_base/domains/TR/assumptions.md", "md_atom_type": "LIST_ITEM", "md_parent_section": "§TR [TR — Assumptions]", "md_verbatim": "2. TRLNKGRP is used to relate records in the TR domain to a response assessment record in the RS domain. The organization of data across the TR and RS domains requires a RELREC relationship to link the related data rows. A dataset-to-dataset link would be the most appropriate linking mechanism. Utilizing 1 of the existing ID variables is not possible because --GRPID, --REFID, and --SPID may be used for other purposes, per the SDTM. The --LNKGRP variable is used for values that support a RELREC dataset-to-dataset relationship and to provide a unique code for each response and associated tumor/lesion measurements/assessments.", "score": 0.5109, "match_basis": "verbatim_token+domain_route:TR"}, {"md_atom_id": "md_dmTR_assn_a019", "md_file": "knowledge_base/domains/TR/assumptions.md", "md_atom_type": "LIST_ITEM", "md_parent_section": "§TR [TR — Assumptions]", "md_verbatim": "7. When additional data are collected about a procedure (e.g., imaging procedure) from which tumor/lesion results are determined, the data about the procedure is stored in the PR domain and the link between the tumor/lesion results and the procedure should be recorded using RELREC.", "score": 0.5095, "match_basis": "verbatim_token+domain_route:TR"}], "candidate_count": 5, "zero_candidate": false}
{"pdf_atom_id": "ig34_p0352_a007", "pdf_atom_type": "LIST_ITEM", "pdf_source": "SDTMIG_v3.4", "pdf_page": 352, "pdf_parent_section": "TR – Assumptions", "pdf_verbatim": "In order to support data value standardization it is sometimes appropriate to standardize an original result value in TRORRES to a standardized result value in TRSTRESC and TRSTRESN. For example, in the published RECIST criteria, a standardized value of 5 mm is used in the calculation to determine response when a tumor is \"too small to measure.\" The original or collected value \"TOO SMALL TO MEASURE\" should be represented in the TRORRES variable and the standardized value should be represented in the TRSTRESC and TRSTRESN variables. The information should be represented on a single row of data showing the standardization between the original result, TRORRES, and the standard results, TRSTRESC/TRSTRESN, as follows:", "figure_ref": null, "candidates": [{"md_atom_id": "md_dmTR_assn_a012", "md_file": "knowledge_base/domains/TR/assumptions.md", "md_atom_type": "LIST_ITEM", "md_parent_section": "§TR [TR — Assumptions]", "md_verbatim": "4. In order to support data value standardization it is sometimes appropriate to standardize an original result value in TRORRES to a standardized result value in TRSTRESC and TRSTRESN. For example, in the published RECIST criteria, a standardized value of 5 mm is used in the calculation to determine response when a tumor is \"too small to measure.\" The original or collected value \"TOO SMALL TO MEASURE\" should be represented in the TRORRES variable and the standardized value should be represented in the TRSTRESC and TRSTRESN variables. The information should be represented on a single row of data showing the standardization between the original result, TRORRES, and the standard results, TRSTRESC/TRSTRESN, as follows:", "score": 1.0, "match_basis": "verbatim_token+domain_route:TR"}, {"md_atom_id": "md_dmTR_assn_a011", "md_file": "knowledge_base/domains/TR/assumptions.md", "md_atom_type": "LIST_ITEM", "md_parent_section": "§TR [TR — Assumptions]", "md_verbatim": "3. TRTESTCD/TRTEST values for this domain are published as Controlled Terminology. For some TRTESTCD/TRTEST values, CDISC CT includes codelists for use with TRORRES. The associations between the test values and results are in the Oncology codetable, which, along with the Controlled Terminology Rules for Oncology, is available at https://www.cdisc.org/standards/terminology/controlled-terminology. The sponsor should not derive results for any test (e.g., percent change from nadir in sum of diameter) if the result was not collected. Tests would be included in the domain only if those data points have been collected on a CRF, presented by the CRF collection system, or supplied by an external assessor as part of an electronic data transfer. It is not intended that the sponsor would create derived records to supply those values in the TR domain. Derived records/results (outside the CRF) should be provided in the analysis dataset (ADaM).", "score": 0.5441, "match_basis": "verbatim_token+domain_route:TR"}, {"md_atom_id": "md_dmTR_assn_a019", "md_file": "knowledge_base/domains/TR/assumptions.md", "md_atom_type": "LIST_ITEM", "md_parent_section": "§TR [TR — Assumptions]", "md_verbatim": "7. When additional data are collected about a procedure (e.g., imaging procedure) from which tumor/lesion results are determined, the data about the procedure is stored in the PR domain and the link between the tumor/lesion results and the procedure should be recorded using RELREC.", "score": 0.5407, "match_basis": "verbatim_token+domain_route:TR"}, {"md_atom_id": "md_dmTR_assn_a010", "md_file": "knowledge_base/domains/TR/assumptions.md", "md_atom_type": "LIST_ITEM", "md_parent_section": "§TR [TR — Assumptions]", "md_verbatim": "2. TRLNKGRP is used to relate records in the TR domain to a response assessment record in the RS domain. The organization of data across the TR and RS domains requires a RELREC relationship to link the related data rows. A dataset-to-dataset link would be the most appropriate linking mechanism. Utilizing 1 of the existing ID variables is not possible because --GRPID, --REFID, and --SPID may be used for other purposes, per the SDTM. The --LNKGRP variable is used for values that support a RELREC dataset-to-dataset relationship and to provide a unique code for each response and associated tumor/lesion measurements/assessments.", "score": 0.5268, "match_basis": "verbatim_token+domain_route:TR"}, {"md_atom_id": "md_dmTR_assn_a016", "md_file": "knowledge_base/domains/TR/assumptions.md", "md_atom_type": "LIST_ITEM", "md_parent_section": "§TR [TR — Assumptions]", "md_verbatim": "5. The acceptance flag variable (TRACPTFL) identifies those records that have been determined to be the accepted assessments/measurements by an independent assessor. This flag would be provided by an independent assessor and when multiple assessors (e.g., \"RADIOLOGIST 1\", \"RADIOLOGIST 2\", \"ADJUDICATOR\") provide assessments or evaluations at the same time point or an overall evaluation. This flag should not be used by a sponsor for any other purpose. It is not expected that the TRACPTFL flag would be populated by the sponsor; instead, that type of record selection should be handled in the analysis dataset (ADaM).", "score": 0.518, "match_basis": "verbatim_token+domain_route:TR"}], "candidate_count": 5, "zero_candidate": false}
{"pdf_atom_id": "ig34_p0352_a008", "pdf_atom_type": "TABLE_HEADER", "pdf_source": "SDTMIG_v3.4", "pdf_page": 352, "pdf_parent_section": "TR – Assumptions", "pdf_verbatim": "| TRLNKID | TRTESTCD | TRTEST | TRORRES | TRORRESU | TRSTRESC | TRSTRESN | TRSTRESU |", "figure_ref": null, "candidates": [{"md_atom_id": "md_dmTR_assn_a013", "md_file": "knowledge_base/domains/TR/assumptions.md", "md_atom_type": "TABLE_HEADER", "md_parent_section": "§TR [TR — Assumptions]", "md_verbatim": "| TRLNKID | TRTESTCD | TRTEST | TRORRES | TRORRESU | TRSTRESC | TRSTRESN | TRSTRESN |", "score": 1.0, "match_basis": "verbatim_token+domain_route:TR"}, {"md_atom_id": "md_dmTR_ex_a054", "md_file": "knowledge_base/domains/TR/examples.md", "md_atom_type": "TABLE_HEADER", "md_parent_section": "§TR.2 [Example 3 (continued from TU)]", "md_verbatim": "| Row | STUDYID | DOMAIN | USUBJID | TRSEQ | TRGRPID | TRLNKGRP | TRLNKID | TRTESTCD | TRTEST | TRORRES | TRORRESU | TRSTRESC | TRSTRESN | TRSTRESU | TRMETHOD | TRNAM | TREVAL | TREVALID | VISITNUM | VISIT | TRDTC | TRDY |", "score": 0.5944, "match_basis": "verbatim_token+domain_route:TR"}, {"md_atom_id": "md_dmTR_ex_a013", "md_file": "knowledge_base/domains/TR/examples.md", "md_atom_type": "TABLE_HEADER", "md_parent_section": "§TR.1 [Example 2 (continued from TU)]", "md_verbatim": "| Row | STUDYID | DOMAIN | USUBJID | TRSEQ | TRGRPID | TRLNKGRP | TRLNKID | TRTESTCD | TRTEST | TRORRES | TRORRESU | TRSTRESC | TRSTRESN | TRSTRESU | TRSTAT | TREASND | TRMETHOD | TREVAL | VISITNUM | VISIT | TRDTC | TRDY |", "score": 0.5917, "match_basis": "verbatim_token+domain_route:TR"}, {"md_atom_id": "md_dmTR_ex_a047", "md_file": "knowledge_base/domains/TR/examples.md", "md_atom_type": "TABLE_ROW", "md_parent_section": "§TR.1 [Example 2 (continued from TU)]", "md_verbatim": "| 2 | ABC | TR | | TRLNKID | | MANY | 1 |", "score": 0.4554, "match_basis": "verbatim_token+domain_route:TR"}, {"md_atom_id": "md_dmTR_ex_a046", "md_file": "knowledge_base/domains/TR/examples.md", "md_atom_type": "TABLE_ROW", "md_parent_section": "§TR.1 [Example 2 (continued from TU)]", "md_verbatim": "| 1 | ABC | TU | | TULNKID | | ONE | 1 |", "score": 0.4067, "match_basis": "verbatim_token+domain_route:TR"}], "candidate_count": 5, "zero_candidate": false}
{"pdf_atom_id": "ig34_p0352_a009", "pdf_atom_type": "TABLE_ROW", "pdf_source": "SDTMIG_v3.4", "pdf_page": 352, "pdf_parent_section": "TR – Assumptions", "pdf_verbatim": "| T01 | DIAMETER | Diameter | TOO SMALL TO MEASURE | mm | 5 | 5 | mm |", "figure_ref": null, "candidates": [{"md_atom_id": "md_dmTR_assn_a014", "md_file": "knowledge_base/domains/TR/assumptions.md", "md_atom_type": "TABLE_ROW", "md_parent_section": "§TR [TR — Assumptions]", "md_verbatim": "| T01 | DIAMETER | Diameter | TOO SMALL TO MEASURE | mm | 5 | 5 | mm |", "score": 1.0, "match_basis": "verbatim_token+domain_route:TR"}, {"md_atom_id": "md_dmTR_ex_a024", "md_file": "knowledge_base/domains/TR/examples.md", "md_atom_type": "TABLE_ROW", "md_parent_section": "§TR.1 [Example 2 (continued from TU)]", "md_verbatim": "| 10 | ABC | TR | 44444 | 10 | TARGET | A2 | T02 | DIAMETER | Diameter | TOO SMALL TO MEASURE | mm | 5 | 5 | mm | | | CT SCAN | INVESTIGATOR | 40 | WEEK 6 | 2010-02-18 | 46 |", "score": 0.6308, "match_basis": "verbatim_token+domain_route:TR"}, {"md_atom_id": "md_dmTR_ex_a023", "md_file": "knowledge_base/domains/TR/examples.md", "md_atom_type": "TABLE_ROW", "md_parent_section": "§TR.1 [Example 2 (continued from TU)]", "md_verbatim": "| 9 | ABC | TR | 44444 | 9 | TARGET | A2 | T01 | DIAMETER | Diameter | 0 | mm | 0 | 0 | mm | | | CT SCAN | INVESTIGATOR | 40 | WEEK 6 | 2010-02-18 | 46 |", "score": 0.5105, "match_basis": "verbatim_token+domain_route:TR"}, {"md_atom_id": "md_dmTR_ex_a036", "md_file": "knowledge_base/domains/TR/examples.md", "md_atom_type": "TABLE_ROW", "md_parent_section": "§TR.1 [Example 2 (continued from TU)]", "md_verbatim": "| 22 | ABC | TR | 44444 | 22 | TARGET | A3 | T01 | DIAMETER | Diameter | 0 | mm | 0 | 0 | mm | | | CT SCAN | INVESTIGATOR | 60 | WEEK 12 | 2010-04-02 | 88 |", "score": 0.5105, "match_basis": "verbatim_token+domain_route:TR"}, {"md_atom_id": "md_dmTR_ex_a015", "md_file": "knowledge_base/domains/TR/examples.md", "md_atom_type": "TABLE_ROW", "md_parent_section": "§TR.1 [Example 2 (continued from TU)]", "md_verbatim": "| 1 | ABC | TR | 44444 | 1 | TARGET | A1 | T01 | DIAMETER | Diameter | 17 | mm | 17 | 17 | mm | | | CT SCAN | INVESTIGATOR | 10 | SCREEN | 2010-01-01 | -3 |", "score": 0.505, "match_basis": "verbatim_token+domain_route:TR"}], "candidate_count": 5, "zero_candidate": false}
{"pdf_atom_id": "ig34_p0352_a010", "pdf_atom_type": "NOTE", "pdf_source": "SDTMIG_v3.4", "pdf_page": 352, "pdf_parent_section": "TR – Assumptions", "pdf_verbatim": "Note: This is an exception to SDTMIG general variable rule 4.1.5.1, Original and Standardized Results of Findings and Tests Not Done.", "figure_ref": null, "candidates": [{"md_atom_id": "md_dmTR_assn_a015", "md_file": "knowledge_base/domains/TR/assumptions.md", "md_atom_type": "NOTE", "md_parent_section": "§TR [TR — Assumptions]", "md_verbatim": "**Note:** This is an exception to SDTMIG general variable rule 4.1.5.1, Original and Standardized Results of Findings and Tests Not Done.", "score": 1.0, "match_basis": "verbatim_token+domain_route:TR"}, {"md_atom_id": "md_dmTR_ex_a002", "md_file": "knowledge_base/domains/TR/examples.md", "md_atom_type": "NOTE", "md_parent_section": "§TR [TR — Examples]", "md_verbatim": "Note: TU and TR share examples. See also [TU Examples](../TU/examples.md).", "score": 0.425, "match_basis": "verbatim_token+domain_route:TR"}, {"md_atom_id": "md_dmTR_ex_a050", "md_file": "knowledge_base/domains/TR/examples.md", "md_atom_type": "NOTE", "md_parent_section": "§TR.2 [Example 3 (continued from TU)]", "md_verbatim": "**Rows 1-7:** Show the measurements of the target tumors and other assessments of the target and non-target tumors at the screening visit by the independent assessor, Radiologist 1.", "score": 0.4153, "match_basis": "verbatim_token+domain_route:TR"}, {"md_atom_id": "md_dmTR_assn_a018", "md_file": "knowledge_base/domains/TR/assumptions.md", "md_atom_type": "NOTE", "md_parent_section": "§TR [TR — Assumptions]", "md_verbatim": "**Note:** TREVAL must also be populated when TREVALID is populated.", "score": 0.4152, "match_basis": "verbatim_token+domain_route:TR"}, {"md_atom_id": "md_dmTR_ex_a009", "md_file": "knowledge_base/domains/TR/examples.md", "md_atom_type": "NOTE", "md_parent_section": "§TR.1 [Example 2 (continued from TU)]", "md_verbatim": "**Rows 1-8:** Show the measurements of the target tumors and other assessments of the target and non-target tumors at the screening visit.", "score": 0.4119, "match_basis": "verbatim_token+domain_route:TR"}], "candidate_count": 5, "zero_candidate": false}
{"pdf_atom_id": "ig34_p0353_a001", "pdf_atom_type": "LIST_ITEM", "pdf_source": "SDTMIG_v3.4", "pdf_page": 353, "pdf_parent_section": "TR – Assumptions", "pdf_verbatim": "The acceptance flag variable (TRACPTFL) identifies those records that have been determined to be the accepted assessments/measurements by an independent assessor. This flag would be provided by an independent assessor and when multiple assessors (e.g., \"RADIOLOGIST 1\", \"RADIOLOGIST 2\", \"ADJUDICATOR\") provide assessments or evaluations at the same time point or an overall evaluation. This flag should not be used by a sponsor for any other purpose. It is not expected that the TRACPTFL flag would be populated by the sponsor; instead, that type of record selection should be handled in the analysis dataset (ADaM).", "figure_ref": null, "candidates": [{"md_atom_id": "md_dmTR_assn_a016", "md_file": "knowledge_base/domains/TR/assumptions.md", "md_atom_type": "LIST_ITEM", "md_parent_section": "§TR [TR — Assumptions]", "md_verbatim": "5. The acceptance flag variable (TRACPTFL) identifies those records that have been determined to be the accepted assessments/measurements by an independent assessor. This flag would be provided by an independent assessor and when multiple assessors (e.g., \"RADIOLOGIST 1\", \"RADIOLOGIST 2\", \"ADJUDICATOR\") provide assessments or evaluations at the same time point or an overall evaluation. This flag should not be used by a sponsor for any other purpose. It is not expected that the TRACPTFL flag would be populated by the sponsor; instead, that type of record selection should be handled in the analysis dataset (ADaM).", "score": 1.0, "match_basis": "verbatim_token+domain_route:TR"}, {"md_atom_id": "md_dmTR_assn_a017", "md_file": "knowledge_base/domains/TR/assumptions.md", "md_atom_type": "LIST_ITEM", "md_parent_section": "§TR [TR — Assumptions]", "md_verbatim": "6. The evaluator-specified variable (TREVALID) is used in conjunction with TREVAL to provide additional detail of who is providing measurements or assessments (e.g., TREVAL = \"INDEPENDENT ASSESSOR\", TREVALID = \"RADIOLOGIST 1\"). The TREVALID variable is subject to controlled terminology.", "score": 0.5777, "match_basis": "verbatim_token+domain_route:TR"}, {"md_atom_id": "md_dmTR_assn_a011", "md_file": "knowledge_base/domains/TR/assumptions.md", "md_atom_type": "LIST_ITEM", "md_parent_section": "§TR [TR — Assumptions]", "md_verbatim": "3. TRTESTCD/TRTEST values for this domain are published as Controlled Terminology. For some TRTESTCD/TRTEST values, CDISC CT includes codelists for use with TRORRES. The associations between the test values and results are in the Oncology codetable, which, along with the Controlled Terminology Rules for Oncology, is available at https://www.cdisc.org/standards/terminology/controlled-terminology. The sponsor should not derive results for any test (e.g., percent change from nadir in sum of diameter) if the result was not collected. Tests would be included in the domain only if those data points have been collected on a CRF, presented by the CRF collection system, or supplied by an external assessor as part of an electronic data transfer. It is not intended that the sponsor would create derived records to supply those values in the TR domain. Derived records/results (outside the CRF) should be provided in the analysis dataset (ADaM).", "score": 0.564, "match_basis": "verbatim_token+domain_route:TR"}, {"md_atom_id": "md_dmTR_assn_a010", "md_file": "knowledge_base/domains/TR/assumptions.md", "md_atom_type": "LIST_ITEM", "md_parent_section": "§TR [TR — Assumptions]", "md_verbatim": "2. TRLNKGRP is used to relate records in the TR domain to a response assessment record in the RS domain. The organization of data across the TR and RS domains requires a RELREC relationship to link the related data rows. A dataset-to-dataset link would be the most appropriate linking mechanism. Utilizing 1 of the existing ID variables is not possible because --GRPID, --REFID, and --SPID may be used for other purposes, per the SDTM. The --LNKGRP variable is used for values that support a RELREC dataset-to-dataset relationship and to provide a unique code for each response and associated tumor/lesion measurements/assessments.", "score": 0.5405, "match_basis": "verbatim_token+domain_route:TR"}, {"md_atom_id": "md_dmTR_assn_a009", "md_file": "knowledge_base/domains/TR/assumptions.md", "md_atom_type": "LIST_ITEM", "md_parent_section": "§TR [TR — Assumptions]", "md_verbatim": "1. TRLNKID is used to relate records in the TR domain to an identification record in TU domain. The organization of data across the TU and TR domains requires a RELREC relationship to link the related data rows. A dataset-to-dataset link would be the most appropriate linking mechanism. Utilizing 1 of the existing ID variables is not possible, because --GRPID, --REFID, and --SPID may be used for other purposes, per the SDTM. The --LNKID variable is used for values that support a RELREC dataset-to-dataset relationship and to provide a unique code for each identified tumor/lesion/location of interest.", "score": 0.524, "match_basis": "verbatim_token+domain_route:TR"}], "candidate_count": 5, "zero_candidate": false}
{"pdf_atom_id": "ig34_p0353_a002", "pdf_atom_type": "LIST_ITEM", "pdf_source": "SDTMIG_v3.4", "pdf_page": 353, "pdf_parent_section": "TR – Assumptions", "pdf_verbatim": "The evaluator-specified variable (TREVALID) is used in conjunction with TREVAL to provide additional detail of who is providing measurements or assessments (e.g., TREVAL = \"INDEPENDENT ASSESSOR\", TREVALID = \"RADIOLOGIST 1\"). The TREVALID variable is subject to controlled terminology. Note: TREVAL must also be populated when TREVALID is populated.", "figure_ref": null, "candidates": [{"md_atom_id": "md_dmTR_assn_a017", "md_file": "knowledge_base/domains/TR/assumptions.md", "md_atom_type": "LIST_ITEM", "md_parent_section": "§TR [TR — Assumptions]", "md_verbatim": "6. The evaluator-specified variable (TREVALID) is used in conjunction with TREVAL to provide additional detail of who is providing measurements or assessments (e.g., TREVAL = \"INDEPENDENT ASSESSOR\", TREVALID = \"RADIOLOGIST 1\"). The TREVALID variable is subject to controlled terminology.", "score": 0.928, "match_basis": "verbatim_token+domain_route:TR"}, {"md_atom_id": "md_dmTR_assn_a016", "md_file": "knowledge_base/domains/TR/assumptions.md", "md_atom_type": "LIST_ITEM", "md_parent_section": "§TR [TR — Assumptions]", "md_verbatim": "5. The acceptance flag variable (TRACPTFL) identifies those records that have been determined to be the accepted assessments/measurements by an independent assessor. This flag would be provided by an independent assessor and when multiple assessors (e.g., \"RADIOLOGIST 1\", \"RADIOLOGIST 2\", \"ADJUDICATOR\") provide assessments or evaluations at the same time point or an overall evaluation. This flag should not be used by a sponsor for any other purpose. It is not expected that the TRACPTFL flag would be populated by the sponsor; instead, that type of record selection should be handled in the analysis dataset (ADaM).", "score": 0.5992, "match_basis": "verbatim_token+domain_route:TR"}, {"md_atom_id": "md_dmTR_assn_a011", "md_file": "knowledge_base/domains/TR/assumptions.md", "md_atom_type": "LIST_ITEM", "md_parent_section": "§TR [TR — Assumptions]", "md_verbatim": "3. TRTESTCD/TRTEST values for this domain are published as Controlled Terminology. For some TRTESTCD/TRTEST values, CDISC CT includes codelists for use with TRORRES. The associations between the test values and results are in the Oncology codetable, which, along with the Controlled Terminology Rules for Oncology, is available at https://www.cdisc.org/standards/terminology/controlled-terminology. The sponsor should not derive results for any test (e.g., percent change from nadir in sum of diameter) if the result was not collected. Tests would be included in the domain only if those data points have been collected on a CRF, presented by the CRF collection system, or supplied by an external assessor as part of an electronic data transfer. It is not intended that the sponsor would create derived records to supply those values in the TR domain. Derived records/results (outside the CRF) should be provided in the analysis dataset (ADaM).", "score": 0.5022, "match_basis": "verbatim_token+domain_route:TR"}, {"md_atom_id": "md_dmTR_assn_a012", "md_file": "knowledge_base/domains/TR/assumptions.md", "md_atom_type": "LIST_ITEM", "md_parent_section": "§TR [TR — Assumptions]", "md_verbatim": "4. In order to support data value standardization it is sometimes appropriate to standardize an original result value in TRORRES to a standardized result value in TRSTRESC and TRSTRESN. For example, in the published RECIST criteria, a standardized value of 5 mm is used in the calculation to determine response when a tumor is \"too small to measure.\" The original or collected value \"TOO SMALL TO MEASURE\" should be represented in the TRORRES variable and the standardized value should be represented in the TRSTRESC and TRSTRESN variables. The information should be represented on a single row of data showing the standardization between the original result, TRORRES, and the standard results, TRSTRESC/TRSTRESN, as follows:", "score": 0.4952, "match_basis": "verbatim_token+domain_route:TR"}, {"md_atom_id": "md_dmTR_assn_a010", "md_file": "knowledge_base/domains/TR/assumptions.md", "md_atom_type": "LIST_ITEM", "md_parent_section": "§TR [TR — Assumptions]", "md_verbatim": "2. TRLNKGRP is used to relate records in the TR domain to a response assessment record in the RS domain. The organization of data across the TR and RS domains requires a RELREC relationship to link the related data rows. A dataset-to-dataset link would be the most appropriate linking mechanism. Utilizing 1 of the existing ID variables is not possible because --GRPID, --REFID, and --SPID may be used for other purposes, per the SDTM. The --LNKGRP variable is used for values that support a RELREC dataset-to-dataset relationship and to provide a unique code for each response and associated tumor/lesion measurements/assessments.", "score": 0.4943, "match_basis": "verbatim_token+domain_route:TR"}], "candidate_count": 5, "zero_candidate": false}
{"pdf_atom_id": "ig34_p0353_a003", "pdf_atom_type": "LIST_ITEM", "pdf_source": "SDTMIG_v3.4", "pdf_page": 353, "pdf_parent_section": "TR – Assumptions", "pdf_verbatim": "When additional data are collected about a procedure (e.g., imaging procedure) from which tumor/lesion results are determined, the data about the procedure is stored in the PR domain and the link between the tumor/lesion results and the procedure should be recorded using RELREC.", "figure_ref": null, "candidates": [{"md_atom_id": "md_dmTR_assn_a019", "md_file": "knowledge_base/domains/TR/assumptions.md", "md_atom_type": "LIST_ITEM", "md_parent_section": "§TR [TR — Assumptions]", "md_verbatim": "7. When additional data are collected about a procedure (e.g., imaging procedure) from which tumor/lesion results are determined, the data about the procedure is stored in the PR domain and the link between the tumor/lesion results and the procedure should be recorded using RELREC.", "score": 1.0, "match_basis": "verbatim_token+domain_route:TR"}, {"md_atom_id": "md_dmTR_assn_a012", "md_file": "knowledge_base/domains/TR/assumptions.md", "md_atom_type": "LIST_ITEM", "md_parent_section": "§TR [TR — Assumptions]", "md_verbatim": "4. In order to support data value standardization it is sometimes appropriate to standardize an original result value in TRORRES to a standardized result value in TRSTRESC and TRSTRESN. For example, in the published RECIST criteria, a standardized value of 5 mm is used in the calculation to determine response when a tumor is \"too small to measure.\" The original or collected value \"TOO SMALL TO MEASURE\" should be represented in the TRORRES variable and the standardized value should be represented in the TRSTRESC and TRSTRESN variables. The information should be represented on a single row of data showing the standardization between the original result, TRORRES, and the standard results, TRSTRESC/TRSTRESN, as follows:", "score": 0.5407, "match_basis": "verbatim_token+domain_route:TR"}, {"md_atom_id": "md_dmTR_assn_a011", "md_file": "knowledge_base/domains/TR/assumptions.md", "md_atom_type": "LIST_ITEM", "md_parent_section": "§TR [TR — Assumptions]", "md_verbatim": "3. TRTESTCD/TRTEST values for this domain are published as Controlled Terminology. For some TRTESTCD/TRTEST values, CDISC CT includes codelists for use with TRORRES. The associations between the test values and results are in the Oncology codetable, which, along with the Controlled Terminology Rules for Oncology, is available at https://www.cdisc.org/standards/terminology/controlled-terminology. The sponsor should not derive results for any test (e.g., percent change from nadir in sum of diameter) if the result was not collected. Tests would be included in the domain only if those data points have been collected on a CRF, presented by the CRF collection system, or supplied by an external assessor as part of an electronic data transfer. It is not intended that the sponsor would create derived records to supply those values in the TR domain. Derived records/results (outside the CRF) should be provided in the analysis dataset (ADaM).", "score": 0.5095, "match_basis": "verbatim_token+domain_route:TR"}, {"md_atom_id": "md_dmTR_assn_a016", "md_file": "knowledge_base/domains/TR/assumptions.md", "md_atom_type": "LIST_ITEM", "md_parent_section": "§TR [TR — Assumptions]", "md_verbatim": "5. The acceptance flag variable (TRACPTFL) identifies those records that have been determined to be the accepted assessments/measurements by an independent assessor. This flag would be provided by an independent assessor and when multiple assessors (e.g., \"RADIOLOGIST 1\", \"RADIOLOGIST 2\", \"ADJUDICATOR\") provide assessments or evaluations at the same time point or an overall evaluation. This flag should not be used by a sponsor for any other purpose. It is not expected that the TRACPTFL flag would be populated by the sponsor; instead, that type of record selection should be handled in the analysis dataset (ADaM).", "score": 0.4847, "match_basis": "verbatim_token+domain_route:TR"}, {"md_atom_id": "md_dmTR_assn_a009", "md_file": "knowledge_base/domains/TR/assumptions.md", "md_atom_type": "LIST_ITEM", "md_parent_section": "§TR [TR — Assumptions]", "md_verbatim": "1. TRLNKID is used to relate records in the TR domain to an identification record in TU domain. The organization of data across the TU and TR domains requires a RELREC relationship to link the related data rows. A dataset-to-dataset link would be the most appropriate linking mechanism. Utilizing 1 of the existing ID variables is not possible, because --GRPID, --REFID, and --SPID may be used for other purposes, per the SDTM. The --LNKID variable is used for values that support a RELREC dataset-to-dataset relationship and to provide a unique code for each identified tumor/lesion/location of interest.", "score": 0.4838, "match_basis": "verbatim_token+domain_route:TR"}], "candidate_count": 5, "zero_candidate": false}
{"pdf_atom_id": "ig34_p0353_a004", "pdf_atom_type": "LIST_ITEM", "pdf_source": "SDTMIG_v3.4", "pdf_page": 353, "pdf_parent_section": "TR – Assumptions", "pdf_verbatim": "Any Identifiers, Timing variables, or Findings general observation class qualifiers may be added to the TR domain, but the following qualifiers would not generally be used: --POS, --BODSYS, --ORNRLO, --ORNRHI, --STNRLO, --STNRHI, --STNRC, --NRIND, --XFN, --LOINC, --SPEC, --SPCCND, --FAST, --TOX, --TOXGR, --SEV.", "figure_ref": null, "candidates": [{"md_atom_id": "md_dmTR_assn_a020", "md_file": "knowledge_base/domains/TR/assumptions.md", "md_atom_type": "LIST_ITEM", "md_parent_section": "§TR [TR — Assumptions]", "md_verbatim": "8. Any Identifiers, Timing variables, or Findings general observation class qualifiers may be added to the TR domain, but the following qualifiers would not generally be used: --POS, --BODSYS, --ORNRLO, --ORNRHI, --STNRLO, --STNRHI, --STNRC, --NRIND, --XFN, --LOINC, --SPEC, --SPCCND, --FAST, --TOX, --TOXGR, --SEV.", "score": 1.0, "match_basis": "verbatim_token+domain_route:TR"}, {"md_atom_id": "md_dmTR_assn_a017", "md_file": "knowledge_base/domains/TR/assumptions.md", "md_atom_type": "LIST_ITEM", "md_parent_section": "§TR [TR — Assumptions]", "md_verbatim": "6. The evaluator-specified variable (TREVALID) is used in conjunction with TREVAL to provide additional detail of who is providing measurements or assessments (e.g., TREVAL = \"INDEPENDENT ASSESSOR\", TREVALID = \"RADIOLOGIST 1\"). The TREVALID variable is subject to controlled terminology.", "score": 0.4834, "match_basis": "verbatim_token+domain_route:TR"}, {"md_atom_id": "md_dmTR_assn_a016", "md_file": "knowledge_base/domains/TR/assumptions.md", "md_atom_type": "LIST_ITEM", "md_parent_section": "§TR [TR — Assumptions]", "md_verbatim": "5. The acceptance flag variable (TRACPTFL) identifies those records that have been determined to be the accepted assessments/measurements by an independent assessor. This flag would be provided by an independent assessor and when multiple assessors (e.g., \"RADIOLOGIST 1\", \"RADIOLOGIST 2\", \"ADJUDICATOR\") provide assessments or evaluations at the same time point or an overall evaluation. This flag should not be used by a sponsor for any other purpose. It is not expected that the TRACPTFL flag would be populated by the sponsor; instead, that type of record selection should be handled in the analysis dataset (ADaM).", "score": 0.4808, "match_basis": "verbatim_token+domain_route:TR"}, {"md_atom_id": "md_dmTR_assn_a009", "md_file": "knowledge_base/domains/TR/assumptions.md", "md_atom_type": "LIST_ITEM", "md_parent_section": "§TR [TR — Assumptions]", "md_verbatim": "1. TRLNKID is used to relate records in the TR domain to an identification record in TU domain. The organization of data across the TU and TR domains requires a RELREC relationship to link the related data rows. A dataset-to-dataset link would be the most appropriate linking mechanism. Utilizing 1 of the existing ID variables is not possible, because --GRPID, --REFID, and --SPID may be used for other purposes, per the SDTM. The --LNKID variable is used for values that support a RELREC dataset-to-dataset relationship and to provide a unique code for each identified tumor/lesion/location of interest.", "score": 0.4769, "match_basis": "verbatim_token+domain_route:TR"}, {"md_atom_id": "md_dmTR_assn_a010", "md_file": "knowledge_base/domains/TR/assumptions.md", "md_atom_type": "LIST_ITEM", "md_parent_section": "§TR [TR — Assumptions]", "md_verbatim": "2. TRLNKGRP is used to relate records in the TR domain to a response assessment record in the RS domain. The organization of data across the TR and RS domains requires a RELREC relationship to link the related data rows. A dataset-to-dataset link would be the most appropriate linking mechanism. Utilizing 1 of the existing ID variables is not possible because --GRPID, --REFID, and --SPID may be used for other purposes, per the SDTM. The --LNKGRP variable is used for values that support a RELREC dataset-to-dataset relationship and to provide a unique code for each response and associated tumor/lesion measurements/assessments.", "score": 0.464, "match_basis": "verbatim_token+domain_route:TR"}], "candidate_count": 5, "zero_candidate": false}
{"pdf_atom_id": "ig34_p0353_a005", "pdf_atom_type": "HEADING", "pdf_source": "SDTMIG_v3.4", "pdf_page": 353, "pdf_parent_section": "§6.3.12 Tumor/Lesion Domains", "pdf_verbatim": "6.3.12.3   Tumor Identification/Tumor Results Examples", "figure_ref": null, "candidates": [{"md_atom_id": "md_varindex_a1564", "md_file": "knowledge_base/VARIABLE_INDEX.md", "md_atom_type": "HEADING", "md_parent_section": "§ 二、领域专属变量（仅 1 个域，共 1499 个），按域分组", "md_verbatim": "### TU — Tumor/Lesion Identification (Findings)", "score": 0.5824, "match_basis": "verbatim_token+global_search"}, {"md_atom_id": "md_dmRS_ex_a044", "md_file": "knowledge_base/domains/RS/examples.md", "md_atom_type": "HEADING", "md_parent_section": "§RS [RS — Examples]", "md_verbatim": "## RS — Examples - Clinical Classifications", "score": 0.5108, "match_basis": "verbatim_token+global_search"}, {"md_atom_id": "md_varindex_a1527", "md_file": "knowledge_base/VARIABLE_INDEX.md", "md_atom_type": "HEADING", "md_parent_section": "§ 二、领域专属变量（仅 1 个域，共 1499 个），按域分组", "md_verbatim": "### TR — Tumor/Lesion Results (Findings)", "score": 0.4765, "match_basis": "verbatim_token+global_search"}, {"md_atom_id": "md_ch08_a276", "md_file": "knowledge_base/chapters/ch08_relationships.md", "md_atom_type": "HEADING", "md_parent_section": "§8.7 [Related Subjects (RELSUB)]", "md_verbatim": "### Specification", "score": 0.44, "match_basis": "verbatim_token+global_search"}, {"md_atom_id": "md_ch08_a318", "md_file": "knowledge_base/chapters/ch08_relationships.md", "md_atom_type": "HEADING", "md_parent_section": "§8.8 [Related Specimens (RELSPEC)]", "md_verbatim": "### Specification", "score": 0.44, "match_basis": "verbatim_token+global_search"}], "candidate_count": 5, "zero_candidate": false}
{"pdf_atom_id": "ig34_p0353_a006", "pdf_atom_type": "HEADING", "pdf_source": "SDTMIG_v3.4", "pdf_page": 353, "pdf_parent_section": "§6.3.12.3 Tumor Identification/Tumor Results Examples", "pdf_verbatim": "Example 1", "figure_ref": null, "candidates": [{"md_atom_id": "md_dmCM_ex_a002", "md_file": "knowledge_base/domains/CM/examples.md", "md_atom_type": "HEADING", "md_parent_section": "§CM.1 [Example 1]", "md_verbatim": "## Example 1", "score": 0.9, "match_basis": "verbatim_token+global_search"}, {"md_atom_id": "md_dmCM_ex_a022", "md_file": "knowledge_base/domains/CM/examples.md", "md_atom_type": "HEADING", "md_parent_section": "§CM.2 [Example 2]", "md_verbatim": "## Example 2", "score": 0.9, "match_basis": "verbatim_token+global_search"}, {"md_atom_id": "md_dmCM_ex_a029", "md_file": "knowledge_base/domains/CM/examples.md", "md_atom_type": "HEADING", "md_parent_section": "§CM.3 [Example 3]", "md_verbatim": "## Example 3", "score": 0.9, "match_basis": "verbatim_token+global_search"}, {"md_atom_id": "md_dmCM_ex_a047", "md_file": "knowledge_base/domains/CM/examples.md", "md_atom_type": "HEADING", "md_parent_section": "§CM.4 [Example 4]", "md_verbatim": "## Example 4", "score": 0.9, "match_basis": "verbatim_token+global_search"}, {"md_atom_id": "md_dmCM_ex_a060", "md_file": "knowledge_base/domains/CM/examples.md", "md_atom_type": "HEADING", "md_parent_section": "§CM.5 [Example 5]", "md_verbatim": "## Example 5", "score": 0.9, "match_basis": "verbatim_token+global_search"}, {"md_atom_id": "md_ch08_a292", "md_file": "knowledge_base/chapters/ch08_relationships.md", "md_atom_type": "HEADING", "md_parent_section": "§8.7 [Related Subjects (RELSUB)]", "md_verbatim": "### Example", "score": 0.9, "match_basis": "verbatim_token+global_search"}, {"md_atom_id": "md_ch08_a331", "md_file": "knowledge_base/chapters/ch08_relationships.md", "md_atom_type": "HEADING", "md_parent_section": "§8.8 [Related Specimens (RELSPEC)]", "md_verbatim": "### Example", "score": 0.9, "match_basis": "verbatim_token+global_search"}, {"md_atom_id": "md_dmAE_ex_a002", "md_file": "knowledge_base/domains/AE/examples.md", "md_atom_type": "HEADING", "md_parent_section": "§AE.1 [Example 1]", "md_verbatim": "## Example 1", "score": 0.9, "match_basis": "verbatim_token+global_search"}, {"md_atom_id": "md_dmAE_ex_a020", "md_file": "knowledge_base/domains/AE/examples.md", "md_atom_type": "HEADING", "md_parent_section": "§AE.2 [Example 2]", "md_verbatim": "## Example 2", "score": 0.9, "match_basis": "verbatim_token+global_search"}, {"md_atom_id": "md_dmAE_ex_a035", "md_file": "knowledge_base/domains/AE/examples.md", "md_atom_type": "HEADING", "md_parent_section": "§AE.3 [Example 3]", "md_verbatim": "## Example 3", "score": 0.9, "match_basis": "verbatim_token+global_search"}], "candidate_count": 10, "zero_candidate": false}
{"pdf_atom_id": "ig34_p0353_a007", "pdf_atom_type": "SENTENCE", "pdf_source": "SDTMIG_v3.4", "pdf_page": 353, "pdf_parent_section": "§6.3.12.3 Tumor Identification/Tumor Results Examples", "pdf_verbatim": "This is an example of using the TU domain to represent non-cancerous lesions identified in the heart.", "figure_ref": null, "candidates": [{"md_atom_id": "md_dmTU_ex_a004", "md_file": "knowledge_base/domains/TU/examples.md", "md_atom_type": "SENTENCE", "md_parent_section": "§TU.1 [Example 1]", "md_verbatim": "This is an example of using the TU domain to represent non-cancerous lesions identified in the heart.", "score": 0.9, "match_basis": "verbatim_token+global_search"}, {"md_atom_id": "md_dmTU_assn_a015", "md_file": "knowledge_base/domains/TU/assumptions.md", "md_atom_type": "SENTENCE", "md_parent_section": "§TU [TU — Assumptions]", "md_verbatim": "The following example shows the preferred approach for representing split lesions in TU.", "score": 0.469, "match_basis": "verbatim_token+global_search"}, {"md_atom_id": "md_dmTU_assn_a002", "md_file": "knowledge_base/domains/TU/assumptions.md", "md_atom_type": "SENTENCE", "md_parent_section": "§TU [TU — Assumptions]", "md_verbatim": "A findings domain that represents data that uniquely identifies tumors, lesions, or locations of interest under study.", "score": 0.4683, "match_basis": "verbatim_token+global_search"}, {"md_atom_id": "md_dmCE_ex_a104", "md_file": "knowledge_base/domains/CE/examples.md", "md_atom_type": "SENTENCE", "md_parent_section": "§CE.3 [Example 3]", "md_verbatim": "The therapeutic measures in this example were procedures represented in the Procedures (PR) domain.", "score": 0.4676, "match_basis": "verbatim_token+global_search"}, {"md_atom_id": "md_dmTU_ex_a028", "md_file": "knowledge_base/domains/TU/examples.md", "md_atom_type": "SENTENCE", "md_parent_section": "§TU.2 [Example 2]", "md_verbatim": "This is an example of tumors identified and tracked using RECIST 1.1 criteria.", "score": 0.4662, "match_basis": "verbatim_token+global_search"}], "candidate_count": 5, "zero_candidate": false}
{"pdf_atom_id": "ig34_p0353_a008", "pdf_atom_type": "SENTENCE", "pdf_source": "SDTMIG_v3.4", "pdf_page": 353, "pdf_parent_section": "§6.3.12.3 Tumor Identification/Tumor Results Examples", "pdf_verbatim": "Subject 40913 had a peripheral vascular intervention (PVI) procedure on February 1, 2007. A target lesion (L01) was identified in the infrarenal aorta within the aorto-iliac vessel (L01-1). During the same PVI procedure, the subject also had a target graft lesion (L01-G) identified in the left femoro-popliteal graft (L01-G1). The lesion location was noted within the graft anastomosis proximal, the type was a synthetic graft composed of Gore-Tex, and the anastomosis was in the left popliteal artery.", "figure_ref": null, "candidates": [{"md_atom_id": "md_dmTU_ex_a008", "md_file": "knowledge_base/domains/TU/examples.md", "md_atom_type": "SENTENCE", "md_parent_section": "§TU.1 [Example 1]", "md_verbatim": "The lesion location was noted within the graft anastomosis proximal, the type was a synthetic graft composed of Gore-Tex, and the anastomosis was in the left popliteal artery.", "score": 0.5627, "match_basis": "verbatim_token+global_search"}, {"md_atom_id": "md_dmTU_ex_a007", "md_file": "knowledge_base/domains/TU/examples.md", "md_atom_type": "SENTENCE", "md_parent_section": "§TU.1 [Example 1]", "md_verbatim": "During the same PVI procedure, the subject also had a target graft lesion (L01-G) identified in the left femoro-popliteal graft (L01-G1).", "score": 0.5157, "match_basis": "verbatim_token+global_search"}, {"md_atom_id": "md_dmTU_ex_a005", "md_file": "knowledge_base/domains/TU/examples.md", "md_atom_type": "SENTENCE", "md_parent_section": "§TU.1 [Example 1]", "md_verbatim": "Subject 40913 had a peripheral vascular intervention (PVI) procedure on February 1, 2007.", "score": 0.4922, "match_basis": "verbatim_token+global_search"}, {"md_atom_id": "md_dmTU_ex_a006", "md_file": "knowledge_base/domains/TU/examples.md", "md_atom_type": "SENTENCE", "md_parent_section": "§TU.1 [Example 1]", "md_verbatim": "A target lesion (L01) was identified in the infrarenal aorta within the aorto-iliac vessel (L01-1).", "score": 0.4647, "match_basis": "verbatim_token+global_search"}, {"md_atom_id": "md_dmTU_ex_a019", "md_file": "knowledge_base/domains/TU/examples.md", "md_atom_type": "SENTENCE", "md_parent_section": "§TU.1 [Example 1]", "md_verbatim": "Additional information about the lesion (e.g., lesion location within the graft, graft anastomosis) as well as details regarding the graft type and material are given using supplemental qualifiers.", "score": 0.4164, "match_basis": "verbatim_token+global_search"}], "candidate_count": 5, "zero_candidate": false}
{"pdf_atom_id": "ig34_p0353_a009", "pdf_atom_type": "SENTENCE", "pdf_source": "SDTMIG_v3.4", "pdf_page": 353, "pdf_parent_section": "§6.3.12.3 Tumor Identification/Tumor Results Examples", "pdf_verbatim": "Rows 1-2:\tShow the target lesion located in the infrarenal aorta and within the aorta-iliac vessel.", "figure_ref": null, "candidates": [{"md_atom_id": "md_dmTU_ex_a009", "md_file": "knowledge_base/domains/TU/examples.md", "md_atom_type": "NOTE", "md_parent_section": "§TU.1 [Example 1]", "md_verbatim": "**Rows 1-2:** Show the target lesion located in the infrarenal aorta and within the aorto-iliac vessel.", "score": 0.7957, "match_basis": "verbatim_token+global_search"}, {"md_atom_id": "md_dmTU_ex_a006", "md_file": "knowledge_base/domains/TU/examples.md", "md_atom_type": "SENTENCE", "md_parent_section": "§TU.1 [Example 1]", "md_verbatim": "A target lesion (L01) was identified in the infrarenal aorta within the aorto-iliac vessel (L01-1).", "score": 0.6577, "match_basis": "verbatim_token+global_search"}, {"md_atom_id": "md_dmTU_ex_a011", "md_file": "knowledge_base/domains/TU/examples.md", "md_atom_type": "NOTE", "md_parent_section": "§TU.1 [Example 1]", "md_verbatim": "**Rows 4-5:** Show the target graft lesion located in the left femoro-popliteal graft and within the femoro-popliteal vessel.", "score": 0.4942, "match_basis": "verbatim_token+global_search"}, {"md_atom_id": "md_dmTU_assn_a048", "md_file": "knowledge_base/domains/TU/assumptions.md", "md_atom_type": "SENTENCE", "md_parent_section": "§TU [TU — Assumptions]", "md_verbatim": "This example shows indicator TUTESTs for a subject with non-target lesions only.", "score": 0.4324, "match_basis": "verbatim_token+global_search"}, {"md_atom_id": "md_dmDD_ex_a004", "md_file": "knowledge_base/domains/DD/examples.md", "md_atom_type": "SENTENCE", "md_parent_section": "§DD.1 [Example 1]", "md_verbatim": "**Rows 1-2:** Show the primary cause of death and location of death for a subject. DDDTC is the date of assessment.", "score": 0.4114, "match_basis": "verbatim_token+global_search"}], "candidate_count": 5, "zero_candidate": false}
{"pdf_atom_id": "ig34_p0353_a010", "pdf_atom_type": "SENTENCE", "pdf_source": "SDTMIG_v3.4", "pdf_page": 353, "pdf_parent_section": "§6.3.12.3 Tumor Identification/Tumor Results Examples", "pdf_verbatim": "Row 3:\tShows the PVI target limb in which the graft lesion is located identified by the investigator.", "figure_ref": null, "candidates": [{"md_atom_id": "md_dmTU_ex_a010", "md_file": "knowledge_base/domains/TU/examples.md", "md_atom_type": "NOTE", "md_parent_section": "§TU.1 [Example 1]", "md_verbatim": "**Row 3:** Shows the PVI target limb in which the graft lesion is located identified by the investigator.", "score": 0.81, "match_basis": "verbatim_token+global_search"}, {"md_atom_id": "md_dmTU_ex_a029", "md_file": "knowledge_base/domains/TU/examples.md", "md_atom_type": "SENTENCE", "md_parent_section": "§TU.2 [Example 2]", "md_verbatim": "TU shows the target and non-target tumors identified by an investigator at a screening visit and also shows that the investigator determined at the week 6 visit that 1 of the previously identified tumors had split.", "score": 0.4793, "match_basis": "verbatim_token+global_search"}, {"md_atom_id": "md_dmRS_ex_a006", "md_file": "knowledge_base/domains/RS/examples.md", "md_atom_type": "SENTENCE", "md_parent_section": "§RS.1.1 [Example 1]", "md_verbatim": "**Rows 1-3:** Show the target response, non-target response, and the overall response by the investigator using RECIST 1.1 at the week 6 visit.", "score": 0.4629, "match_basis": "verbatim_token+global_search"}, {"md_atom_id": "md_dmTU_ex_a007", "md_file": "knowledge_base/domains/TU/examples.md", "md_atom_type": "SENTENCE", "md_parent_section": "§TU.1 [Example 1]", "md_verbatim": "During the same PVI procedure, the subject also had a target graft lesion (L01-G) identified in the left femoro-popliteal graft (L01-G1).", "score": 0.4595, "match_basis": "verbatim_token+global_search"}, {"md_atom_id": "md_dmTU_ex_a006", "md_file": "knowledge_base/domains/TU/examples.md", "md_atom_type": "SENTENCE", "md_parent_section": "§TU.1 [Example 1]", "md_verbatim": "A target lesion (L01) was identified in the infrarenal aorta within the aorto-iliac vessel (L01-1).", "score": 0.4565, "match_basis": "verbatim_token+global_search"}], "candidate_count": 5, "zero_candidate": false}
{"pdf_atom_id": "ig34_p0353_a011", "pdf_atom_type": "SENTENCE", "pdf_source": "SDTMIG_v3.4", "pdf_page": 353, "pdf_parent_section": "§6.3.12.3 Tumor Identification/Tumor Results Examples", "pdf_verbatim": "Rows 4-5:\tShow the target graft lesion located in the left femoro-popliteal graft and within the femoro-popliteal vessel.", "figure_ref": null, "candidates": [{"md_atom_id": "md_dmTU_ex_a011", "md_file": "knowledge_base/domains/TU/examples.md", "md_atom_type": "NOTE", "md_parent_section": "§TU.1 [Example 1]", "md_verbatim": "**Rows 4-5:** Show the target graft lesion located in the left femoro-popliteal graft and within the femoro-popliteal vessel.", "score": 0.81, "match_basis": "verbatim_token+global_search"}, {"md_atom_id": "md_dmTU_ex_a007", "md_file": "knowledge_base/domains/TU/examples.md", "md_atom_type": "SENTENCE", "md_parent_section": "§TU.1 [Example 1]", "md_verbatim": "During the same PVI procedure, the subject also had a target graft lesion (L01-G) identified in the left femoro-popliteal graft (L01-G1).", "score": 0.5055, "match_basis": "verbatim_token+global_search"}, {"md_atom_id": "md_dmTU_ex_a009", "md_file": "knowledge_base/domains/TU/examples.md", "md_atom_type": "NOTE", "md_parent_section": "§TU.1 [Example 1]", "md_verbatim": "**Rows 1-2:** Show the target lesion located in the infrarenal aorta and within the aorto-iliac vessel.", "score": 0.4893, "match_basis": "verbatim_token+global_search"}, {"md_atom_id": "md_dmTU_ex_a008", "md_file": "knowledge_base/domains/TU/examples.md", "md_atom_type": "SENTENCE", "md_parent_section": "§TU.1 [Example 1]", "md_verbatim": "The lesion location was noted within the graft anastomosis proximal, the type was a synthetic graft composed of Gore-Tex, and the anastomosis was in the left popliteal artery.", "score": 0.4857, "match_basis": "verbatim_token+global_search"}, {"md_atom_id": "md_dmTU_ex_a006", "md_file": "knowledge_base/domains/TU/examples.md", "md_atom_type": "SENTENCE", "md_parent_section": "§TU.1 [Example 1]", "md_verbatim": "A target lesion (L01) was identified in the infrarenal aorta within the aorto-iliac vessel (L01-1).", "score": 0.45, "match_basis": "verbatim_token+global_search"}], "candidate_count": 5, "zero_candidate": false}
{"pdf_atom_id": "ig34_p0353_a012", "pdf_atom_type": "CODE_LITERAL", "pdf_source": "SDTMIG_v3.4", "pdf_page": 353, "pdf_parent_section": "§6.3.12.3 Tumor Identification/Tumor Results Examples", "pdf_verbatim": "tu.xpt", "figure_ref": null, "candidates": [{"md_atom_id": "md_ch04_a207", "md_file": "knowledge_base/chapters/ch04_general_assumptions.md", "md_atom_type": "CODE_LITERAL", "md_parent_section": "§4.2.3 [Use of \"Subject\" and USUBJID]", "md_verbatim": "dm.xpt:", "score": 0.69, "match_basis": "verbatim_token+global_search"}, {"md_atom_id": "md_ch04_a210", "md_file": "knowledge_base/chapters/ch04_general_assumptions.md", "md_atom_type": "CODE_LITERAL", "md_parent_section": "§4.2.3 [Use of \"Subject\" and USUBJID]", "md_verbatim": "dm.xpt:", "score": 0.69, "match_basis": "verbatim_token+global_search"}, {"md_atom_id": "md_dmCM_ex_a010", "md_file": "knowledge_base/domains/CM/examples.md", "md_atom_type": "NOTE", "md_parent_section": "§CM.1 [Example 1]", "md_verbatim": "**cm.xpt**", "score": 0.69, "match_basis": "verbatim_token+global_search"}, {"md_atom_id": "md_dmCM_ex_a025", "md_file": "knowledge_base/domains/CM/examples.md", "md_atom_type": "NOTE", "md_parent_section": "§CM.2 [Example 2]", "md_verbatim": "**cm.xpt**", "score": 0.69, "match_basis": "verbatim_token+global_search"}, {"md_atom_id": "md_dmCM_ex_a042", "md_file": "knowledge_base/domains/CM/examples.md", "md_atom_type": "NOTE", "md_parent_section": "§CM.3 [Example 3]", "md_verbatim": "**cm.xpt**", "score": 0.69, "match_basis": "verbatim_token+global_search"}, {"md_atom_id": "md_dmCM_ex_a052", "md_file": "knowledge_base/domains/CM/examples.md", "md_atom_type": "NOTE", "md_parent_section": "§CM.4 [Example 4]", "md_verbatim": "**cm.xpt**", "score": 0.69, "match_basis": "verbatim_token+global_search"}, {"md_atom_id": "md_dmCM_ex_a070", "md_file": "knowledge_base/domains/CM/examples.md", "md_atom_type": "NOTE", "md_parent_section": "§CM.5 [Example 5]", "md_verbatim": "**cm.xpt**", "score": 0.69, "match_basis": "verbatim_token+global_search"}, {"md_atom_id": "md_ch04_a368", "md_file": "knowledge_base/chapters/ch04_general_assumptions.md", "md_atom_type": "CODE_LITERAL", "md_parent_section": "§4.2.8.3 [Multiple Values for a Non-result Qualifier Variable]", "md_verbatim": "ae.xpt:", "score": 0.69, "match_basis": "verbatim_token+global_search"}, {"md_atom_id": "md_ch04_a378", "md_file": "knowledge_base/chapters/ch04_general_assumptions.md", "md_atom_type": "CODE_LITERAL", "md_parent_section": "§4.2.8.3 [Multiple Values for a Non-result Qualifier Variable]", "md_verbatim": "ae.xpt:", "score": 0.69, "match_basis": "verbatim_token+global_search"}, {"md_atom_id": "md_ch04_a391", "md_file": "knowledge_base/chapters/ch04_general_assumptions.md", "md_atom_type": "CODE_LITERAL", "md_parent_section": "§4.2.8.3 [Multiple Values for a Non-result Qualifier Variable]", "md_verbatim": "ae.xpt:", "score": 0.69, "match_basis": "verbatim_token+global_search"}], "candidate_count": 10, "zero_candidate": false}
{"pdf_atom_id": "ig34_p0353_a013", "pdf_atom_type": "TABLE_HEADER", "pdf_source": "SDTMIG_v3.4", "pdf_page": 353, "pdf_parent_section": "§6.3.12.3 Tumor Identification/Tumor Results Examples", "pdf_verbatim": "| Row | STUDYID | DOMAIN | USUBJID | TUSEQ | TULNKID | TUTESTCD | TUTEST | TUORRES | TUSTRESC | TULOC | TULAT | TUMETHOD | TUEVAL | VISITNUM | VISIT | TUDTC |", "figure_ref": null, "candidates": [{"md_atom_id": "md_dmTU_ex_a013", "md_file": "knowledge_base/domains/TU/examples.md", "md_atom_type": "TABLE_HEADER", "md_parent_section": "§TU.1 [Example 1]", "md_verbatim": "| Row | STUDYID | DOMAIN | USUBJID | TUSEQ | TULNKID | TUTESTCD | TUTEST | TUORRES | TUSTRESC | TULOC | TULAT | TUMETHOD | TUEVAL | VISITNUM | VISIT | TUDTC |", "score": 0.9, "match_basis": "verbatim_token+global_search"}, {"md_atom_id": "md_dmTU_ex_a033", "md_file": "knowledge_base/domains/TU/examples.md", "md_atom_type": "TABLE_HEADER", "md_parent_section": "§TU.2 [Example 2]", "md_verbatim": "| Row | STUDYID | DOMAIN | USUBJID | TUSEQ | TUGRPID | TULNKID | TUTESTCD | TUTEST | TUORRES | TUSTRESC | TULOC | TULAT | TUMETHOD | TUEVAL | VISITNUM | VISIT | TUDTC | TUDY |", "score": 0.8538, "match_basis": "verbatim_token+global_search"}, {"md_atom_id": "md_dmTU_ex_a058", "md_file": "knowledge_base/domains/TU/examples.md", "md_atom_type": "TABLE_HEADER", "md_parent_section": "§TU.3 [Example 3]", "md_verbatim": "| Row | STUDYID | DOMAIN | USUBJID | TUSEQ | TULNKID | TUTESTCD | TUTEST | TUORRES | TUSTRESC | TULOC | TULAT | TUMETHOD | TUNAM | TUEVAL | TUEVALID | VISITNUM | VISIT | TUDTC |", "score": 0.8538, "match_basis": "verbatim_token+global_search"}, {"md_atom_id": "md_dmUR_ex_a020", "md_file": "knowledge_base/domains/UR/examples.md", "md_atom_type": "TABLE_HEADER", "md_parent_section": "§UR.2 [Example 2]", "md_verbatim": "| Row | STUDYID | DOMAIN | USUBJID | URSEQ | URTESTCD | URTEST | URORRES | URORRESU | URSTRESC | URSTRESN | URSTRESU | URLOC | URLAT | URMETHOD | VISITNUM | VISIT | URDTC |", "score": 0.6079, "match_basis": "verbatim_token+global_search"}, {"md_atom_id": "md_dmOE_ex_a049", "md_file": "knowledge_base/domains/OE/examples.md", "md_atom_type": "TABLE_HEADER", "md_parent_section": "§OE.3 [Example 3]", "md_verbatim": "| Row | STUDYID | DOMAIN | USUBJID | FOCID | OESEQ | OELNKID | OETESTCD | OETEST | OEORRES | OEORRESU | OESTRESC | OESTRESN | OESTRESU | OELOC | OELAT | OEMETHOD | OEEVAL | OECLSIG | VISITNUM | VISIT | OEDTC |\n|-----|---------|--------|---------|-------|-------|---------|----------|--------|---------|----------|----------|----------|----------|-------|-------|----------|--------|---------|----------|-------|-------|", "score": 0.607, "match_basis": "verbatim_token+global_search"}], "candidate_count": 5, "zero_candidate": false}
{"pdf_atom_id": "ig34_p0353_a014", "pdf_atom_type": "TABLE_ROW", "pdf_source": "SDTMIG_v3.4", "pdf_page": 353, "pdf_parent_section": "§6.3.12.3 Tumor Identification/Tumor Results Examples", "pdf_verbatim": "| 1 | STUDY01 | TU | 40913 | 1 | L01 | LESIDENT | Lesion Identification | TARGET | TARGET | INFRARENAL AORTA | LEFT | ANGIOGRAPHY | INVESTIGATOR | 1 | SCREEN | 2007-02-01 |", "figure_ref": null, "candidates": [{"md_atom_id": "md_dmTU_ex_a014", "md_file": "knowledge_base/domains/TU/examples.md", "md_atom_type": "TABLE_ROW", "md_parent_section": "§TU.1 [Example 1]", "md_verbatim": "| 1 | STUDY01 | TU | 40913 | 1 | L01 | LESIDENT | Lesion Identification | TARGET | TARGET | INFRARENAL AORTA | LEFT | ANGIOGRAPHY | INVESTIGATOR | 1 | SCREEN | 2007-02-01 |", "score": 0.9, "match_basis": "verbatim_token+global_search"}, {"md_atom_id": "md_dmTU_ex_a016", "md_file": "knowledge_base/domains/TU/examples.md", "md_atom_type": "TABLE_ROW", "md_parent_section": "§TU.1 [Example 1]", "md_verbatim": "| 3 | STUDY01 | TU | 40913 | 3 | L01-2 | LMLIDENT | Limb Location Identification | TARGET | TARGET | LEG | LEFT | ANGIOGRAPHY | INVESTIGATOR | 1 | SCREEN | 2007-02-01 |", "score": 0.716, "match_basis": "verbatim_token+global_search"}, {"md_atom_id": "md_dmTU_ex_a015", "md_file": "knowledge_base/domains/TU/examples.md", "md_atom_type": "TABLE_ROW", "md_parent_section": "§TU.1 [Example 1]", "md_verbatim": "| 2 | STUDY01 | TU | 40913 | 2 | L01-1 | VSIDENT | Vessel Lesion Identification | TARGET | TARGET | AORTO-ILIAC PERIPHERAL ARTERY | LEFT | ANGIOGRAPHY | INVESTIGATOR | 1 | SCREEN | 2007-02-01 |", "score": 0.7, "match_basis": "verbatim_token+global_search"}, {"md_atom_id": "md_dmTU_ex_a018", "md_file": "knowledge_base/domains/TU/examples.md", "md_atom_type": "TABLE_ROW", "md_parent_section": "§TU.1 [Example 1]", "md_verbatim": "| 5 | STUDY01 | TU | 40913 | 5 | L01-G1 | VSIDENT | Vessel Lesion Identification | TARGET | TARGET | FEMORO-POPLITEAL PERIPHERAL ARTERY | LEFT | ANGIOGRAPHY | INVESTIGATOR | 1 | SCREEN | 2007-02-01 |", "score": 0.6574, "match_basis": "verbatim_token+global_search"}, {"md_atom_id": "md_dmTU_ex_a017", "md_file": "knowledge_base/domains/TU/examples.md", "md_atom_type": "TABLE_ROW", "md_parent_section": "§TU.1 [Example 1]", "md_verbatim": "| 4 | STUDY01 | TU | 40913 | 4 | L01-G | GRLIDENT | Graft Lesion Identification | TARGET | TARGET | FEMORO-POPLITEAL PERIPHERAL ARTERY | LEFT | ANGIOGRAPHY | INVESTIGATOR | 1 | SCREEN | 2007-02-01 |", "score": 0.6474, "match_basis": "verbatim_token+global_search"}], "candidate_count": 5, "zero_candidate": false}
{"pdf_atom_id": "ig34_p0353_a015", "pdf_atom_type": "TABLE_ROW", "pdf_source": "SDTMIG_v3.4", "pdf_page": 353, "pdf_parent_section": "§6.3.12.3 Tumor Identification/Tumor Results Examples", "pdf_verbatim": "| 2 | STUDY01 | TU | 40913 | 2 | L01-1 | VSLIDENT | Vessel Lesion Identification | TARGET | TARGET | AORTO-ILIAC PERIPHERAL ARTERY | LEFT | ANGIOGRAPHY | INVESTIGATOR | 1 | SCREEN | 2007-02-01 |", "figure_ref": null, "candidates": [{"md_atom_id": "md_dmTU_ex_a015", "md_file": "knowledge_base/domains/TU/examples.md", "md_atom_type": "TABLE_ROW", "md_parent_section": "§TU.1 [Example 1]", "md_verbatim": "| 2 | STUDY01 | TU | 40913 | 2 | L01-1 | VSIDENT | Vessel Lesion Identification | TARGET | TARGET | AORTO-ILIAC PERIPHERAL ARTERY | LEFT | ANGIOGRAPHY | INVESTIGATOR | 1 | SCREEN | 2007-02-01 |", "score": 0.863, "match_basis": "verbatim_token+global_search"}, {"md_atom_id": "md_dmTU_ex_a018", "md_file": "knowledge_base/domains/TU/examples.md", "md_atom_type": "TABLE_ROW", "md_parent_section": "§TU.1 [Example 1]", "md_verbatim": "| 5 | STUDY01 | TU | 40913 | 5 | L01-G1 | VSIDENT | Vessel Lesion Identification | TARGET | TARGET | FEMORO-POPLITEAL PERIPHERAL ARTERY | LEFT | ANGIOGRAPHY | INVESTIGATOR | 1 | SCREEN | 2007-02-01 |", "score": 0.7565, "match_basis": "verbatim_token+global_search"}, {"md_atom_id": "md_dmTU_ex_a017", "md_file": "knowledge_base/domains/TU/examples.md", "md_atom_type": "TABLE_ROW", "md_parent_section": "§TU.1 [Example 1]", "md_verbatim": "| 4 | STUDY01 | TU | 40913 | 4 | L01-G | GRLIDENT | Graft Lesion Identification | TARGET | TARGET | FEMORO-POPLITEAL PERIPHERAL ARTERY | LEFT | ANGIOGRAPHY | INVESTIGATOR | 1 | SCREEN | 2007-02-01 |", "score": 0.734, "match_basis": "verbatim_token+global_search"}, {"md_atom_id": "md_dmTU_ex_a014", "md_file": "knowledge_base/domains/TU/examples.md", "md_atom_type": "TABLE_ROW", "md_parent_section": "§TU.1 [Example 1]", "md_verbatim": "| 1 | STUDY01 | TU | 40913 | 1 | L01 | LESIDENT | Lesion Identification | TARGET | TARGET | INFRARENAL AORTA | LEFT | ANGIOGRAPHY | INVESTIGATOR | 1 | SCREEN | 2007-02-01 |", "score": 0.6843, "match_basis": "verbatim_token+global_search"}, {"md_atom_id": "md_dmTU_ex_a016", "md_file": "knowledge_base/domains/TU/examples.md", "md_atom_type": "TABLE_ROW", "md_parent_section": "§TU.1 [Example 1]", "md_verbatim": "| 3 | STUDY01 | TU | 40913 | 3 | L01-2 | LMLIDENT | Limb Location Identification | TARGET | TARGET | LEG | LEFT | ANGIOGRAPHY | INVESTIGATOR | 1 | SCREEN | 2007-02-01 |", "score": 0.6698, "match_basis": "verbatim_token+global_search"}], "candidate_count": 5, "zero_candidate": false}
{"pdf_atom_id": "ig34_p0353_a016", "pdf_atom_type": "TABLE_ROW", "pdf_source": "SDTMIG_v3.4", "pdf_page": 353, "pdf_parent_section": "§6.3.12.3 Tumor Identification/Tumor Results Examples", "pdf_verbatim": "| 3 | STUDY01 | TU | 40913 | 3 | L01-2 | LMLIDENT | Limb Lesion Identification | TARGET | TARGET | LEG | LEFT | ANGIOGRAPHY | INVESTIGATOR | 1 | SCREEN | 2007-02-01 |", "figure_ref": null, "candidates": [{"md_atom_id": "md_dmTU_ex_a016", "md_file": "knowledge_base/domains/TU/examples.md", "md_atom_type": "TABLE_ROW", "md_parent_section": "§TU.1 [Example 1]", "md_verbatim": "| 3 | STUDY01 | TU | 40913 | 3 | L01-2 | LMLIDENT | Limb Location Identification | TARGET | TARGET | LEG | LEFT | ANGIOGRAPHY | INVESTIGATOR | 1 | SCREEN | 2007-02-01 |", "score": 0.8524, "match_basis": "verbatim_token+global_search"}, {"md_atom_id": "md_dmTU_ex_a014", "md_file": "knowledge_base/domains/TU/examples.md", "md_atom_type": "TABLE_ROW", "md_parent_section": "§TU.1 [Example 1]", "md_verbatim": "| 1 | STUDY01 | TU | 40913 | 1 | L01 | LESIDENT | Lesion Identification | TARGET | TARGET | INFRARENAL AORTA | LEFT | ANGIOGRAPHY | INVESTIGATOR | 1 | SCREEN | 2007-02-01 |", "score": 0.7521, "match_basis": "verbatim_token+global_search"}, {"md_atom_id": "md_dmTU_ex_a015", "md_file": "knowledge_base/domains/TU/examples.md", "md_atom_type": "TABLE_ROW", "md_parent_section": "§TU.1 [Example 1]", "md_verbatim": "| 2 | STUDY01 | TU | 40913 | 2 | L01-1 | VSIDENT | Vessel Lesion Identification | TARGET | TARGET | AORTO-ILIAC PERIPHERAL ARTERY | LEFT | ANGIOGRAPHY | INVESTIGATOR | 1 | SCREEN | 2007-02-01 |", "score": 0.6929, "match_basis": "verbatim_token+global_search"}, {"md_atom_id": "md_dmTU_ex_a017", "md_file": "knowledge_base/domains/TU/examples.md", "md_atom_type": "TABLE_ROW", "md_parent_section": "§TU.1 [Example 1]", "md_verbatim": "| 4 | STUDY01 | TU | 40913 | 4 | L01-G | GRLIDENT | Graft Lesion Identification | TARGET | TARGET | FEMORO-POPLITEAL PERIPHERAL ARTERY | LEFT | ANGIOGRAPHY | INVESTIGATOR | 1 | SCREEN | 2007-02-01 |", "score": 0.6818, "match_basis": "verbatim_token+global_search"}, {"md_atom_id": "md_dmTU_ex_a018", "md_file": "knowledge_base/domains/TU/examples.md", "md_atom_type": "TABLE_ROW", "md_parent_section": "§TU.1 [Example 1]", "md_verbatim": "| 5 | STUDY01 | TU | 40913 | 5 | L01-G1 | VSIDENT | Vessel Lesion Identification | TARGET | TARGET | FEMORO-POPLITEAL PERIPHERAL ARTERY | LEFT | ANGIOGRAPHY | INVESTIGATOR | 1 | SCREEN | 2007-02-01 |", "score": 0.6708, "match_basis": "verbatim_token+global_search"}], "candidate_count": 5, "zero_candidate": false}
{"pdf_atom_id": "ig34_p0353_a017", "pdf_atom_type": "TABLE_ROW", "pdf_source": "SDTMIG_v3.4", "pdf_page": 353, "pdf_parent_section": "§6.3.12.3 Tumor Identification/Tumor Results Examples", "pdf_verbatim": "| 4 | STUDY01 | TU | 40913 | 4 | L01-G | GRLIDENT | Graft Lesion Identification | TARGET | TARGET | FEMORO-POPLITEAL PERIPHERAL ARTERY | LEFT | ANGIOGRAPHY | INVESTIGATOR | 1 | SCREEN | 2007-02-01 |", "figure_ref": null, "candidates": [{"md_atom_id": "md_dmTU_ex_a017", "md_file": "knowledge_base/domains/TU/examples.md", "md_atom_type": "TABLE_ROW", "md_parent_section": "§TU.1 [Example 1]", "md_verbatim": "| 4 | STUDY01 | TU | 40913 | 4 | L01-G | GRLIDENT | Graft Lesion Identification | TARGET | TARGET | FEMORO-POPLITEAL PERIPHERAL ARTERY | LEFT | ANGIOGRAPHY | INVESTIGATOR | 1 | SCREEN | 2007-02-01 |", "score": 0.9, "match_basis": "verbatim_token+global_search"}, {"md_atom_id": "md_dmTU_ex_a018", "md_file": "knowledge_base/domains/TU/examples.md", "md_atom_type": "TABLE_ROW", "md_parent_section": "§TU.1 [Example 1]", "md_verbatim": "| 5 | STUDY01 | TU | 40913 | 5 | L01-G1 | VSIDENT | Vessel Lesion Identification | TARGET | TARGET | FEMORO-POPLITEAL PERIPHERAL ARTERY | LEFT | ANGIOGRAPHY | INVESTIGATOR | 1 | SCREEN | 2007-02-01 |", "score": 0.8318, "match_basis": "verbatim_token+global_search"}, {"md_atom_id": "md_dmTU_ex_a015", "md_file": "knowledge_base/domains/TU/examples.md", "md_atom_type": "TABLE_ROW", "md_parent_section": "§TU.1 [Example 1]", "md_verbatim": "| 2 | STUDY01 | TU | 40913 | 2 | L01-1 | VSIDENT | Vessel Lesion Identification | TARGET | TARGET | AORTO-ILIAC PERIPHERAL ARTERY | LEFT | ANGIOGRAPHY | INVESTIGATOR | 1 | SCREEN | 2007-02-01 |", "score": 0.7277, "match_basis": "verbatim_token+global_search"}, {"md_atom_id": "md_dmTU_ex_a016", "md_file": "knowledge_base/domains/TU/examples.md", "md_atom_type": "TABLE_ROW", "md_parent_section": "§TU.1 [Example 1]", "md_verbatim": "| 3 | STUDY01 | TU | 40913 | 3 | L01-2 | LMLIDENT | Limb Location Identification | TARGET | TARGET | LEG | LEFT | ANGIOGRAPHY | INVESTIGATOR | 1 | SCREEN | 2007-02-01 |", "score": 0.6533, "match_basis": "verbatim_token+global_search"}, {"md_atom_id": "md_dmTU_ex_a014", "md_file": "knowledge_base/domains/TU/examples.md", "md_atom_type": "TABLE_ROW", "md_parent_section": "§TU.1 [Example 1]", "md_verbatim": "| 1 | STUDY01 | TU | 40913 | 1 | L01 | LESIDENT | Lesion Identification | TARGET | TARGET | INFRARENAL AORTA | LEFT | ANGIOGRAPHY | INVESTIGATOR | 1 | SCREEN | 2007-02-01 |", "score": 0.6474, "match_basis": "verbatim_token+global_search"}], "candidate_count": 5, "zero_candidate": false}
{"pdf_atom_id": "ig34_p0353_a018", "pdf_atom_type": "TABLE_ROW", "pdf_source": "SDTMIG_v3.4", "pdf_page": 353, "pdf_parent_section": "§6.3.12.3 Tumor Identification/Tumor Results Examples", "pdf_verbatim": "| 5 | STUDY01 | TU | 40913 | 5 | L01-G1 | VSLIDENT | Vessel Lesion Identification | TARGET | TARGET | FEMORO-POPLITEAL PERIPHERAL ARTERY | LEFT | ANGIOGRAPHY | INVESTIGATOR | 1 | SCREEN | 2007-02-01 |", "figure_ref": null, "candidates": [{"md_atom_id": "md_dmTU_ex_a018", "md_file": "knowledge_base/domains/TU/examples.md", "md_atom_type": "TABLE_ROW", "md_parent_section": "§TU.1 [Example 1]", "md_verbatim": "| 5 | STUDY01 | TU | 40913 | 5 | L01-G1 | VSIDENT | Vessel Lesion Identification | TARGET | TARGET | FEMORO-POPLITEAL PERIPHERAL ARTERY | LEFT | ANGIOGRAPHY | INVESTIGATOR | 1 | SCREEN | 2007-02-01 |", "score": 0.8651, "match_basis": "verbatim_token+global_search"}, {"md_atom_id": "md_dmTU_ex_a017", "md_file": "knowledge_base/domains/TU/examples.md", "md_atom_type": "TABLE_ROW", "md_parent_section": "§TU.1 [Example 1]", "md_verbatim": "| 4 | STUDY01 | TU | 40913 | 4 | L01-G | GRLIDENT | Graft Lesion Identification | TARGET | TARGET | FEMORO-POPLITEAL PERIPHERAL ARTERY | LEFT | ANGIOGRAPHY | INVESTIGATOR | 1 | SCREEN | 2007-02-01 |", "score": 0.8386, "match_basis": "verbatim_token+global_search"}, {"md_atom_id": "md_dmTU_ex_a015", "md_file": "knowledge_base/domains/TU/examples.md", "md_atom_type": "TABLE_ROW", "md_parent_section": "§TU.1 [Example 1]", "md_verbatim": "| 2 | STUDY01 | TU | 40913 | 2 | L01-1 | VSIDENT | Vessel Lesion Identification | TARGET | TARGET | AORTO-ILIAC PERIPHERAL ARTERY | LEFT | ANGIOGRAPHY | INVESTIGATOR | 1 | SCREEN | 2007-02-01 |", "score": 0.7565, "match_basis": "verbatim_token+global_search"}, {"md_atom_id": "md_dmTU_ex_a016", "md_file": "knowledge_base/domains/TU/examples.md", "md_atom_type": "TABLE_ROW", "md_parent_section": "§TU.1 [Example 1]", "md_verbatim": "| 3 | STUDY01 | TU | 40913 | 3 | L01-2 | LMLIDENT | Limb Location Identification | TARGET | TARGET | LEG | LEFT | ANGIOGRAPHY | INVESTIGATOR | 1 | SCREEN | 2007-02-01 |", "score": 0.6495, "match_basis": "verbatim_token+global_search"}, {"md_atom_id": "md_dmTU_ex_a014", "md_file": "knowledge_base/domains/TU/examples.md", "md_atom_type": "TABLE_ROW", "md_parent_section": "§TU.1 [Example 1]", "md_verbatim": "| 1 | STUDY01 | TU | 40913 | 1 | L01 | LESIDENT | Lesion Identification | TARGET | TARGET | INFRARENAL AORTA | LEFT | ANGIOGRAPHY | INVESTIGATOR | 1 | SCREEN | 2007-02-01 |", "score": 0.6437, "match_basis": "verbatim_token+global_search"}], "candidate_count": 5, "zero_candidate": false}
{"pdf_atom_id": "ig34_p0354_a001", "pdf_atom_type": "SENTENCE", "pdf_source": "SDTMIG_v3.4", "pdf_page": 354, "pdf_parent_section": "§6.3.12.3 Tumor Identification/Tumor Results Examples", "pdf_verbatim": "Additional information about the lesion (e.g., lesion location within the graft, graft anastomosis) as well as details regarding the graft type and material are given using supplemental qualifiers.", "figure_ref": null, "candidates": [{"md_atom_id": "md_dmTU_ex_a019", "md_file": "knowledge_base/domains/TU/examples.md", "md_atom_type": "SENTENCE", "md_parent_section": "§TU.1 [Example 1]", "md_verbatim": "Additional information about the lesion (e.g., lesion location within the graft, graft anastomosis) as well as details regarding the graft type and material are given using supplemental qualifiers.", "score": 0.9, "match_basis": "verbatim_token+global_search"}, {"md_atom_id": "md_dmMI_ex_a028", "md_file": "knowledge_base/domains/MI/examples.md", "md_atom_type": "SENTENCE", "md_parent_section": "§MI.2 [Example 2]", "md_verbatim": "These IHC staining results were all for the cell nucleus, represented using a supplemental qualifier for subcellular location.", "score": 0.4488, "match_basis": "verbatim_token+global_search"}, {"md_atom_id": "md_dmMI_ex_a046", "md_file": "knowledge_base/domains/MI/examples.md", "md_atom_type": "SENTENCE", "md_parent_section": "§MI.3 [Example 3]", "md_verbatim": "These IHC staining results were all for the cell cytoplasm, represented using a supplemental qualifier for subcellular location.", "score": 0.4463, "match_basis": "verbatim_token+global_search"}, {"md_atom_id": "md_ch04_a181", "md_file": "knowledge_base/chapters/ch04_general_assumptions.md", "md_atom_type": "SENTENCE", "md_parent_section": "§4.2.1 [Variable-Naming Conventions]", "md_verbatim": "Use of variable names (other than domain prefixes), formats, decodes, terminology, and data types for the same type of data (even for custom domains and Supplemental Qualifiers) should be consistent within and across studies within a submission.", "score": 0.4452, "match_basis": "verbatim_token+global_search"}, {"md_atom_id": "md_dmTU_ex_a008", "md_file": "knowledge_base/domains/TU/examples.md", "md_atom_type": "SENTENCE", "md_parent_section": "§TU.1 [Example 1]", "md_verbatim": "The lesion location was noted within the graft anastomosis proximal, the type was a synthetic graft composed of Gore-Tex, and the anastomosis was in the left popliteal artery.", "score": 0.4452, "match_basis": "verbatim_token+global_search"}], "candidate_count": 5, "zero_candidate": false}
{"pdf_atom_id": "ig34_p0354_a002", "pdf_atom_type": "CODE_LITERAL", "pdf_source": "SDTMIG_v3.4", "pdf_page": 354, "pdf_parent_section": "§6.3.12.3 Tumor Identification/Tumor Results Examples", "pdf_verbatim": "supptu.xpt", "figure_ref": null, "candidates": [{"md_atom_id": "md_dmTU_ex_a020", "md_file": "knowledge_base/domains/TU/examples.md", "md_atom_type": "CODE_LITERAL", "md_parent_section": "§TU.1 [Example 1]", "md_verbatim": "**supptu.xpt**", "score": 0.69, "match_basis": "verbatim_token+global_search"}, {"md_atom_id": "md_dmTU_ex_a043", "md_file": "knowledge_base/domains/TU/examples.md", "md_atom_type": "CODE_LITERAL", "md_parent_section": "§TU.2 [Example 2]", "md_verbatim": "**supptu.xpt**", "score": 0.69, "match_basis": "verbatim_token+global_search"}, {"md_atom_id": "md_dmPP_ex_a035", "md_file": "knowledge_base/domains/PP/examples.md", "md_atom_type": "SENTENCE", "md_parent_section": "§PP.1 [Example 1]", "md_verbatim": "**supppp.xpt**", "score": 0.39, "match_basis": "verbatim_token+global_search"}, {"md_atom_id": "md_ch04_a371", "md_file": "knowledge_base/chapters/ch04_general_assumptions.md", "md_atom_type": "CODE_LITERAL", "md_parent_section": "§4.2.8.3 [Multiple Values for a Non-result Qualifier Variable]", "md_verbatim": "suppae.xpt:", "score": 0.3471, "match_basis": "verbatim_token+global_search"}, {"md_atom_id": "md_ch04_a381", "md_file": "knowledge_base/chapters/ch04_general_assumptions.md", "md_atom_type": "CODE_LITERAL", "md_parent_section": "§4.2.8.3 [Multiple Values for a Non-result Qualifier Variable]", "md_verbatim": "suppae.xpt:", "score": 0.3471, "match_basis": "verbatim_token+global_search"}, {"md_atom_id": "md_ch04_a394", "md_file": "knowledge_base/chapters/ch04_general_assumptions.md", "md_atom_type": "CODE_LITERAL", "md_parent_section": "§4.2.8.3 [Multiple Values for a Non-result Qualifier Variable]", "md_verbatim": "suppae.xpt:", "score": 0.3471, "match_basis": "verbatim_token+global_search"}, {"md_atom_id": "md_ch04_a918", "md_file": "knowledge_base/chapters/ch04_general_assumptions.md", "md_atom_type": "CODE_LITERAL", "md_parent_section": "§4.5.3.2 [Text Strings Greater than 200 Characters in Other Variables]", "md_verbatim": "suppmh.xpt", "score": 0.3471, "match_basis": "verbatim_token+global_search"}, {"md_atom_id": "md_ch04_a922", "md_file": "knowledge_base/chapters/ch04_general_assumptions.md", "md_atom_type": "SENTENCE", "md_parent_section": "§4.5.3.2 [Text Strings Greater than 200 Characters in Other Variables]", "md_verbatim": "suppmh.xpt:", "score": 0.3471, "match_basis": "verbatim_token+global_search"}, {"md_atom_id": "md_ch04_a928", "md_file": "knowledge_base/chapters/ch04_general_assumptions.md", "md_atom_type": "CODE_LITERAL", "md_parent_section": "§4.5.3.2 [Text Strings Greater than 200 Characters in Other Variables]", "md_verbatim": "suppae.xpt", "score": 0.3471, "match_basis": "verbatim_token+global_search"}, {"md_atom_id": "md_ch04_a932", "md_file": "knowledge_base/chapters/ch04_general_assumptions.md", "md_atom_type": "SENTENCE", "md_parent_section": "§4.5.3.2 [Text Strings Greater than 200 Characters in Other Variables]", "md_verbatim": "suppae.xpt:", "score": 0.3471, "match_basis": "verbatim_token+global_search"}], "candidate_count": 10, "zero_candidate": false}
{"pdf_atom_id": "ig34_p0354_a003", "pdf_atom_type": "TABLE_HEADER", "pdf_source": "SDTMIG_v3.4", "pdf_page": 354, "pdf_parent_section": "§6.3.12.3 Tumor Identification/Tumor Results Examples", "pdf_verbatim": "| Row | STUDYID | RDOMAIN | USUBJID | IDVAR | IDVARVAL | QNAM | QLABEL | QVAL | QORIG | QEVAL |", "figure_ref": null, "candidates": [{"md_atom_id": "md_ch04_a104", "md_file": "knowledge_base/chapters/ch04_general_assumptions.md", "md_atom_type": "TABLE_HEADER", "md_parent_section": "§4.1.7.1 [Example of Splitting Questionnaires]", "md_verbatim": "| Row | STUDYID | RDOMAIN | USUBJID | IDVAR | IDVARVAL | QNAM | QLABEL | QVAL | QORIG | QEVAL |", "score": 0.9, "match_basis": "verbatim_token+global_search"}, {"md_atom_id": "md_ch04_a108", "md_file": "knowledge_base/chapters/ch04_general_assumptions.md", "md_atom_type": "TABLE_HEADER", "md_parent_section": "§4.1.7.1 [Example of Splitting Questionnaires]", "md_verbatim": "| Row | STUDYID | RDOMAIN | USUBJID | IDVAR | IDVARVAL | QNAM | QLABEL | QVAL | QORIG | QEVAL |", "score": 0.9, "match_basis": "verbatim_token+global_search"}, {"md_atom_id": "md_ch04_a120", "md_file": "knowledge_base/chapters/ch04_general_assumptions.md", "md_atom_type": "TABLE_HEADER", "md_parent_section": "§4.1.7.1 [Example of Splitting Questionnaires]", "md_verbatim": "| Row | STUDYID | RDOMAIN | USUBJID | IDVAR | IDVARVAL | QNAM | QLABEL | QVAL | QORIG | QEVAL |", "score": 0.9, "match_basis": "verbatim_token+global_search"}, {"md_atom_id": "md_ch04_a964", "md_file": "knowledge_base/chapters/ch04_general_assumptions.md", "md_atom_type": "TABLE_HEADER", "md_parent_section": "§4.5.4 [Evaluators in the Interventions and Events Observation Classes]", "md_verbatim": "| Row | STUDYID | RDOMAIN | USUBJID | IDVAR | IDVARVAL | QNAM | QLABEL | QVAL | QORIG | QEVAL |\n|-----|---------|---------|---------|-------|----------|------|--------|------|-------|-------|", "score": 0.9, "match_basis": "verbatim_token+global_search"}, {"md_atom_id": "md_ch08_a188", "md_file": "knowledge_base/chapters/ch08_relationships.md", "md_atom_type": "TABLE_HEADER", "md_parent_section": "§8.4.3 [Examples]", "md_verbatim": "| Row | STUDYID | RDOMAIN | USUBJID | IDVAR | IDVARVAL | QNAM | QLABEL | QVAL | QORIG | QEVAL |\n|-----|---------|---------|---------|-------|----------|------|--------|------|-------|-------|", "score": 0.9, "match_basis": "verbatim_token+global_search"}], "candidate_count": 5, "zero_candidate": false}
{"pdf_atom_id": "ig34_p0354_a004", "pdf_atom_type": "TABLE_ROW", "pdf_source": "SDTMIG_v3.4", "pdf_page": 354, "pdf_parent_section": "§6.3.12.3 Tumor Identification/Tumor Results Examples", "pdf_verbatim": "| 1 | STUDY01 | TU | 40913 | TUSEQ | 4 | TUPAGLL | Peripheral Graft Lesion Location | GRAFT ANASTOMOSIS PROXIMAL | CRF | |", "figure_ref": null, "candidates": [{"md_atom_id": "md_dmTU_ex_a022", "md_file": "knowledge_base/domains/TU/examples.md", "md_atom_type": "TABLE_ROW", "md_parent_section": "§TU.1 [Example 1]", "md_verbatim": "| 1 | STUDY01 | TU | 40913 | TUSEQ | 4 | TUPAGLL | Peripheral Graft Lesion Location | GRAFT ANASTOMOSIS PROXIMAL | CRF | |", "score": 0.9, "match_basis": "verbatim_token+global_search"}, {"md_atom_id": "md_dmTU_ex_a023", "md_file": "knowledge_base/domains/TU/examples.md", "md_atom_type": "TABLE_ROW", "md_parent_section": "§TU.1 [Example 1]", "md_verbatim": "| 2 | STUDY01 | TU | 40913 | TUSEQ | 4 | TUPAGAR | Peripheral Artery Graft Anastomosis | LEFT POPLITEAL ARTERY | CRF | |", "score": 0.6134, "match_basis": "verbatim_token+global_search"}, {"md_atom_id": "md_dmTU_ex_a025", "md_file": "knowledge_base/domains/TU/examples.md", "md_atom_type": "TABLE_ROW", "md_parent_section": "§TU.1 [Example 1]", "md_verbatim": "| 4 | STUDY01 | TU | 40913 | TUSEQ | 4 | TUPAGT | Peripheral Artery Graft Type | SYNTHETIC GRAFT | CRF | |", "score": 0.5364, "match_basis": "verbatim_token+global_search"}, {"md_atom_id": "md_dmTU_ex_a026", "md_file": "knowledge_base/domains/TU/examples.md", "md_atom_type": "TABLE_ROW", "md_parent_section": "§TU.1 [Example 1]", "md_verbatim": "| 5 | STUDY01 | TU | 40913 | TUSEQ | 4 | TUPAGSM | Peripheral Artery Graft Synthetic Material | GORE-TEX | CRF | |", "score": 0.5167, "match_basis": "verbatim_token+global_search"}, {"md_atom_id": "md_dmTU_ex_a024", "md_file": "knowledge_base/domains/TU/examples.md", "md_atom_type": "TABLE_ROW", "md_parent_section": "§TU.1 [Example 1]", "md_verbatim": "| 3 | STUDY01 | TU | 40913 | TUSEQ | 4 | TUOTHLDS | Other Lesion Description | LESION IS 5MM FROM THE ORIGIN OF THE GRAFT | CRF | |", "score": 0.4833, "match_basis": "verbatim_token+global_search"}], "candidate_count": 5, "zero_candidate": false}
{"pdf_atom_id": "ig34_p0354_a005", "pdf_atom_type": "TABLE_ROW", "pdf_source": "SDTMIG_v3.4", "pdf_page": 354, "pdf_parent_section": "§6.3.12.3 Tumor Identification/Tumor Results Examples", "pdf_verbatim": "| 2 | STUDY01 | TU | 40913 | TUSEQ | 4 | TUPAGA | Peripheral Artery Graft Anastomosis | LEFT POPLITEAL ARTERY | CRF | |", "figure_ref": null, "candidates": [{"md_atom_id": "md_dmTU_ex_a023", "md_file": "knowledge_base/domains/TU/examples.md", "md_atom_type": "TABLE_ROW", "md_parent_section": "§TU.1 [Example 1]", "md_verbatim": "| 2 | STUDY01 | TU | 40913 | TUSEQ | 4 | TUPAGAR | Peripheral Artery Graft Anastomosis | LEFT POPLITEAL ARTERY | CRF | |", "score": 0.888, "match_basis": "verbatim_token+global_search"}, {"md_atom_id": "md_dmTU_ex_a022", "md_file": "knowledge_base/domains/TU/examples.md", "md_atom_type": "TABLE_ROW", "md_parent_section": "§TU.1 [Example 1]", "md_verbatim": "| 1 | STUDY01 | TU | 40913 | TUSEQ | 4 | TUPAGLL | Peripheral Graft Lesion Location | GRAFT ANASTOMOSIS PROXIMAL | CRF | |", "score": 0.6182, "match_basis": "verbatim_token+global_search"}, {"md_atom_id": "md_dmTU_ex_a025", "md_file": "knowledge_base/domains/TU/examples.md", "md_atom_type": "TABLE_ROW", "md_parent_section": "§TU.1 [Example 1]", "md_verbatim": "| 4 | STUDY01 | TU | 40913 | TUSEQ | 4 | TUPAGT | Peripheral Artery Graft Type | SYNTHETIC GRAFT | CRF | |", "score": 0.6051, "match_basis": "verbatim_token+global_search"}, {"md_atom_id": "md_dmTU_ex_a026", "md_file": "knowledge_base/domains/TU/examples.md", "md_atom_type": "TABLE_ROW", "md_parent_section": "§TU.1 [Example 1]", "md_verbatim": "| 5 | STUDY01 | TU | 40913 | TUSEQ | 4 | TUPAGSM | Peripheral Artery Graft Synthetic Material | GORE-TEX | CRF | |", "score": 0.5769, "match_basis": "verbatim_token+global_search"}, {"md_atom_id": "md_dmTU_ex_a017", "md_file": "knowledge_base/domains/TU/examples.md", "md_atom_type": "TABLE_ROW", "md_parent_section": "§TU.1 [Example 1]", "md_verbatim": "| 4 | STUDY01 | TU | 40913 | 4 | L01-G | GRLIDENT | Graft Lesion Identification | TARGET | TARGET | FEMORO-POPLITEAL PERIPHERAL ARTERY | LEFT | ANGIOGRAPHY | INVESTIGATOR | 1 | SCREEN | 2007-02-01 |", "score": 0.492, "match_basis": "verbatim_token+global_search"}], "candidate_count": 5, "zero_candidate": false}
{"pdf_atom_id": "ig34_p0354_a006", "pdf_atom_type": "TABLE_ROW", "pdf_source": "SDTMIG_v3.4", "pdf_page": 354, "pdf_parent_section": "§6.3.12.3 Tumor Identification/Tumor Results Examples", "pdf_verbatim": "| 3 | STUDY01 | TU | 40913 | TUSEQ | 4 | TUOTHLDS | Other Lesion Description | LESION IS 5MM FROM THE ORIGIN OF THE GRAFT | CRF | |", "figure_ref": null, "candidates": [{"md_atom_id": "md_dmTU_ex_a024", "md_file": "knowledge_base/domains/TU/examples.md", "md_atom_type": "TABLE_ROW", "md_parent_section": "§TU.1 [Example 1]", "md_verbatim": "| 3 | STUDY01 | TU | 40913 | TUSEQ | 4 | TUOTHLDS | Other Lesion Description | LESION IS 5MM FROM THE ORIGIN OF THE GRAFT | CRF | |", "score": 0.9, "match_basis": "verbatim_token+global_search"}, {"md_atom_id": "md_dmTU_ex_a022", "md_file": "knowledge_base/domains/TU/examples.md", "md_atom_type": "TABLE_ROW", "md_parent_section": "§TU.1 [Example 1]", "md_verbatim": "| 1 | STUDY01 | TU | 40913 | TUSEQ | 4 | TUPAGLL | Peripheral Graft Lesion Location | GRAFT ANASTOMOSIS PROXIMAL | CRF | |", "score": 0.4833, "match_basis": "verbatim_token+global_search"}, {"md_atom_id": "md_dmTU_ex_a025", "md_file": "knowledge_base/domains/TU/examples.md", "md_atom_type": "TABLE_ROW", "md_parent_section": "§TU.1 [Example 1]", "md_verbatim": "| 4 | STUDY01 | TU | 40913 | TUSEQ | 4 | TUPAGT | Peripheral Artery Graft Type | SYNTHETIC GRAFT | CRF | |", "score": 0.4688, "match_basis": "verbatim_token+global_search"}, {"md_atom_id": "md_dmTU_ex_a026", "md_file": "knowledge_base/domains/TU/examples.md", "md_atom_type": "TABLE_ROW", "md_parent_section": "§TU.1 [Example 1]", "md_verbatim": "| 5 | STUDY01 | TU | 40913 | TUSEQ | 4 | TUPAGSM | Peripheral Artery Graft Synthetic Material | GORE-TEX | CRF | |", "score": 0.4543, "match_basis": "verbatim_token+global_search"}, {"md_atom_id": "md_dmTU_ex_a023", "md_file": "knowledge_base/domains/TU/examples.md", "md_atom_type": "TABLE_ROW", "md_parent_section": "§TU.1 [Example 1]", "md_verbatim": "| 2 | STUDY01 | TU | 40913 | TUSEQ | 4 | TUPAGAR | Peripheral Artery Graft Anastomosis | LEFT POPLITEAL ARTERY | CRF | |", "score": 0.436, "match_basis": "verbatim_token+global_search"}], "candidate_count": 5, "zero_candidate": false}
{"pdf_atom_id": "ig34_p0354_a007", "pdf_atom_type": "TABLE_ROW", "pdf_source": "SDTMIG_v3.4", "pdf_page": 354, "pdf_parent_section": "§6.3.12.3 Tumor Identification/Tumor Results Examples", "pdf_verbatim": "| 4 | STUDY01 | TU | 40913 | TUSEQ | 4 | TUPAGT | Peripheral Artery Graft Type | SYNTHETIC GRAFT | CRF | |", "figure_ref": null, "candidates": [{"md_atom_id": "md_dmTU_ex_a025", "md_file": "knowledge_base/domains/TU/examples.md", "md_atom_type": "TABLE_ROW", "md_parent_section": "§TU.1 [Example 1]", "md_verbatim": "| 4 | STUDY01 | TU | 40913 | TUSEQ | 4 | TUPAGT | Peripheral Artery Graft Type | SYNTHETIC GRAFT | CRF | |", "score": 0.9, "match_basis": "verbatim_token+global_search"}, {"md_atom_id": "md_dmTU_ex_a026", "md_file": "knowledge_base/domains/TU/examples.md", "md_atom_type": "TABLE_ROW", "md_parent_section": "§TU.1 [Example 1]", "md_verbatim": "| 5 | STUDY01 | TU | 40913 | TUSEQ | 4 | TUPAGSM | Peripheral Artery Graft Synthetic Material | GORE-TEX | CRF | |", "score": 0.7531, "match_basis": "verbatim_token+global_search"}, {"md_atom_id": "md_dmTU_ex_a023", "md_file": "knowledge_base/domains/TU/examples.md", "md_atom_type": "TABLE_ROW", "md_parent_section": "§TU.1 [Example 1]", "md_verbatim": "| 2 | STUDY01 | TU | 40913 | TUSEQ | 4 | TUPAGAR | Peripheral Artery Graft Anastomosis | LEFT POPLITEAL ARTERY | CRF | |", "score": 0.6, "match_basis": "verbatim_token+global_search"}, {"md_atom_id": "md_dmTU_ex_a022", "md_file": "knowledge_base/domains/TU/examples.md", "md_atom_type": "TABLE_ROW", "md_parent_section": "§TU.1 [Example 1]", "md_verbatim": "| 1 | STUDY01 | TU | 40913 | TUSEQ | 4 | TUPAGLL | Peripheral Graft Lesion Location | GRAFT ANASTOMOSIS PROXIMAL | CRF | |", "score": 0.5364, "match_basis": "verbatim_token+global_search"}, {"md_atom_id": "md_dmTU_ex_a024", "md_file": "knowledge_base/domains/TU/examples.md", "md_atom_type": "TABLE_ROW", "md_parent_section": "§TU.1 [Example 1]", "md_verbatim": "| 3 | STUDY01 | TU | 40913 | TUSEQ | 4 | TUOTHLDS | Other Lesion Description | LESION IS 5MM FROM THE ORIGIN OF THE GRAFT | CRF | |", "score": 0.4688, "match_basis": "verbatim_token+global_search"}], "candidate_count": 5, "zero_candidate": false}
{"pdf_atom_id": "ig34_p0354_a008", "pdf_atom_type": "TABLE_ROW", "pdf_source": "SDTMIG_v3.4", "pdf_page": 354, "pdf_parent_section": "§6.3.12.3 Tumor Identification/Tumor Results Examples", "pdf_verbatim": "| 5 | STUDY01 | TU | 40913 | TUSEQ | 4 | TUPAGSM | Peripheral Artery Graft Synthetic Material | GORE-TEX | CRF | |", "figure_ref": null, "candidates": [{"md_atom_id": "md_dmTU_ex_a026", "md_file": "knowledge_base/domains/TU/examples.md", "md_atom_type": "TABLE_ROW", "md_parent_section": "§TU.1 [Example 1]", "md_verbatim": "| 5 | STUDY01 | TU | 40913 | TUSEQ | 4 | TUPAGSM | Peripheral Artery Graft Synthetic Material | GORE-TEX | CRF | |", "score": 0.9, "match_basis": "verbatim_token+global_search"}, {"md_atom_id": "md_dmTU_ex_a025", "md_file": "knowledge_base/domains/TU/examples.md", "md_atom_type": "TABLE_ROW", "md_parent_section": "§TU.1 [Example 1]", "md_verbatim": "| 4 | STUDY01 | TU | 40913 | TUSEQ | 4 | TUPAGT | Peripheral Artery Graft Type | SYNTHETIC GRAFT | CRF | |", "score": 0.7531, "match_basis": "verbatim_token+global_search"}, {"md_atom_id": "md_dmTU_ex_a023", "md_file": "knowledge_base/domains/TU/examples.md", "md_atom_type": "TABLE_ROW", "md_parent_section": "§TU.1 [Example 1]", "md_verbatim": "| 2 | STUDY01 | TU | 40913 | TUSEQ | 4 | TUPAGAR | Peripheral Artery Graft Anastomosis | LEFT POPLITEAL ARTERY | CRF | |", "score": 0.5727, "match_basis": "verbatim_token+global_search"}, {"md_atom_id": "md_dmTU_ex_a022", "md_file": "knowledge_base/domains/TU/examples.md", "md_atom_type": "TABLE_ROW", "md_parent_section": "§TU.1 [Example 1]", "md_verbatim": "| 1 | STUDY01 | TU | 40913 | TUSEQ | 4 | TUPAGLL | Peripheral Graft Lesion Location | GRAFT ANASTOMOSIS PROXIMAL | CRF | |", "score": 0.5167, "match_basis": "verbatim_token+global_search"}, {"md_atom_id": "md_dmTU_ex_a024", "md_file": "knowledge_base/domains/TU/examples.md", "md_atom_type": "TABLE_ROW", "md_parent_section": "§TU.1 [Example 1]", "md_verbatim": "| 3 | STUDY01 | TU | 40913 | TUSEQ | 4 | TUOTHLDS | Other Lesion Description | LESION IS 5MM FROM THE ORIGIN OF THE GRAFT | CRF | |", "score": 0.4543, "match_basis": "verbatim_token+global_search"}], "candidate_count": 5, "zero_candidate": false}
{"pdf_atom_id": "ig34_p0354_a009", "pdf_atom_type": "HEADING", "pdf_source": "SDTMIG_v3.4", "pdf_page": 354, "pdf_parent_section": "§6.3.12.3 Tumor Identification/Tumor Results Examples", "pdf_verbatim": "Example 2", "figure_ref": null, "candidates": [{"md_atom_id": "md_dmCM_ex_a002", "md_file": "knowledge_base/domains/CM/examples.md", "md_atom_type": "HEADING", "md_parent_section": "§CM.1 [Example 1]", "md_verbatim": "## Example 1", "score": 0.9, "match_basis": "verbatim_token+global_search"}, {"md_atom_id": "md_dmCM_ex_a022", "md_file": "knowledge_base/domains/CM/examples.md", "md_atom_type": "HEADING", "md_parent_section": "§CM.2 [Example 2]", "md_verbatim": "## Example 2", "score": 0.9, "match_basis": "verbatim_token+global_search"}, {"md_atom_id": "md_dmCM_ex_a029", "md_file": "knowledge_base/domains/CM/examples.md", "md_atom_type": "HEADING", "md_parent_section": "§CM.3 [Example 3]", "md_verbatim": "## Example 3", "score": 0.9, "match_basis": "verbatim_token+global_search"}, {"md_atom_id": "md_dmCM_ex_a047", "md_file": "knowledge_base/domains/CM/examples.md", "md_atom_type": "HEADING", "md_parent_section": "§CM.4 [Example 4]", "md_verbatim": "## Example 4", "score": 0.9, "match_basis": "verbatim_token+global_search"}, {"md_atom_id": "md_dmCM_ex_a060", "md_file": "knowledge_base/domains/CM/examples.md", "md_atom_type": "HEADING", "md_parent_section": "§CM.5 [Example 5]", "md_verbatim": "## Example 5", "score": 0.9, "match_basis": "verbatim_token+global_search"}, {"md_atom_id": "md_ch08_a292", "md_file": "knowledge_base/chapters/ch08_relationships.md", "md_atom_type": "HEADING", "md_parent_section": "§8.7 [Related Subjects (RELSUB)]", "md_verbatim": "### Example", "score": 0.9, "match_basis": "verbatim_token+global_search"}, {"md_atom_id": "md_ch08_a331", "md_file": "knowledge_base/chapters/ch08_relationships.md", "md_atom_type": "HEADING", "md_parent_section": "§8.8 [Related Specimens (RELSPEC)]", "md_verbatim": "### Example", "score": 0.9, "match_basis": "verbatim_token+global_search"}, {"md_atom_id": "md_dmAE_ex_a002", "md_file": "knowledge_base/domains/AE/examples.md", "md_atom_type": "HEADING", "md_parent_section": "§AE.1 [Example 1]", "md_verbatim": "## Example 1", "score": 0.9, "match_basis": "verbatim_token+global_search"}, {"md_atom_id": "md_dmAE_ex_a020", "md_file": "knowledge_base/domains/AE/examples.md", "md_atom_type": "HEADING", "md_parent_section": "§AE.2 [Example 2]", "md_verbatim": "## Example 2", "score": 0.9, "match_basis": "verbatim_token+global_search"}, {"md_atom_id": "md_dmAE_ex_a035", "md_file": "knowledge_base/domains/AE/examples.md", "md_atom_type": "HEADING", "md_parent_section": "§AE.3 [Example 3]", "md_verbatim": "## Example 3", "score": 0.9, "match_basis": "verbatim_token+global_search"}], "candidate_count": 10, "zero_candidate": false}
{"pdf_atom_id": "ig34_p0354_a010", "pdf_atom_type": "SENTENCE", "pdf_source": "SDTMIG_v3.4", "pdf_page": 354, "pdf_parent_section": "§6.3.12.3 Tumor Identification/Tumor Results Examples", "pdf_verbatim": "This is an example of tumors identified and tracked using RECIST 1.1 criteria.", "figure_ref": null, "candidates": [{"md_atom_id": "md_dmTU_ex_a028", "md_file": "knowledge_base/domains/TU/examples.md", "md_atom_type": "SENTENCE", "md_parent_section": "§TU.2 [Example 2]", "md_verbatim": "This is an example of tumors identified and tracked using RECIST 1.1 criteria.", "score": 0.9, "match_basis": "verbatim_token+global_search"}, {"md_atom_id": "md_dmTU_assn_a005", "md_file": "knowledge_base/domains/TU/assumptions.md", "md_atom_type": "SENTENCE", "md_parent_section": "§TU [TU — Assumptions]", "md_verbatim": "For example, an oncology study using RECIST criteria would identify target, non-target, and new tumors.", "score": 0.5897, "match_basis": "verbatim_token+global_search"}, {"md_atom_id": "md_dmTU_ex_a051", "md_file": "knowledge_base/domains/TU/examples.md", "md_atom_type": "SENTENCE", "md_parent_section": "§TU.3 [Example 3]", "md_verbatim": "This is an example of tumors identified and tracked following RECIST 1.1 criteria, with an additional opinion provided by an independent assessor.", "score": 0.588, "match_basis": "verbatim_token+global_search"}, {"md_atom_id": "md_dmTU_assn_a018", "md_file": "knowledge_base/domains/TU/assumptions.md", "md_atom_type": "SENTENCE", "md_parent_section": "§TU [TU — Assumptions]", "md_verbatim": "Example target tumor T04, identified at the screening visit, splits into 2 at week 16.", "score": 0.4672, "match_basis": "verbatim_token+global_search"}, {"md_atom_id": "md_dmTU_ex_a004", "md_file": "knowledge_base/domains/TU/examples.md", "md_atom_type": "SENTENCE", "md_parent_section": "§TU.1 [Example 1]", "md_verbatim": "This is an example of using the TU domain to represent non-cancerous lesions identified in the heart.", "score": 0.4662, "match_basis": "verbatim_token+global_search"}], "candidate_count": 5, "zero_candidate": false}
{"pdf_atom_id": "ig34_p0354_a011", "pdf_atom_type": "SENTENCE", "pdf_source": "SDTMIG_v3.4", "pdf_page": 354, "pdf_parent_section": "§6.3.12.3 Tumor Identification/Tumor Results Examples", "pdf_verbatim": "TU shows the target and non-target tumors identified by an investigator at a screening visit and also shows that the investigator determined at the week 6 visit that 1 of the previously identified tumors had split.", "figure_ref": null, "candidates": [{"md_atom_id": "md_dmTU_ex_a029", "md_file": "knowledge_base/domains/TU/examples.md", "md_atom_type": "SENTENCE", "md_parent_section": "§TU.2 [Example 2]", "md_verbatim": "TU shows the target and non-target tumors identified by an investigator at a screening visit and also shows that the investigator determined at the week 6 visit that 1 of the previously identified tumors had split.", "score": 0.9, "match_basis": "verbatim_token+global_search"}, {"md_atom_id": "md_dmTU_ex_a052", "md_file": "knowledge_base/domains/TU/examples.md", "md_atom_type": "SENTENCE", "md_parent_section": "§TU.3 [Example 3]", "md_verbatim": "TU shows the target and non-target tumors identified by a radiologist at a screening visit.", "score": 0.5494, "match_basis": "verbatim_token+global_search"}, {"md_atom_id": "md_dmTU_ex_a030", "md_file": "knowledge_base/domains/TU/examples.md", "md_atom_type": "NOTE", "md_parent_section": "§TU.2 [Example 2]", "md_verbatim": "**Rows 1-6:** Show for subject 44444 the target and non-target tumors identified by the investigator at the screening visit.", "score": 0.5416, "match_basis": "verbatim_token+global_search"}, {"md_atom_id": "md_dmTU_assn_a018", "md_file": "knowledge_base/domains/TU/assumptions.md", "md_atom_type": "SENTENCE", "md_parent_section": "§TU [TU — Assumptions]", "md_verbatim": "Example target tumor T04, identified at the screening visit, splits into 2 at week 16.", "score": 0.5416, "match_basis": "verbatim_token+global_search"}, {"md_atom_id": "md_dmTU_ex_a053", "md_file": "knowledge_base/domains/TU/examples.md", "md_atom_type": "SENTENCE", "md_parent_section": "§TU.3 [Example 3]", "md_verbatim": "It also shows that the radiologist identified 2 new tumors: 1 at the week 6 visit and 1 at the week 12 visit.", "score": 0.5, "match_basis": "verbatim_token+global_search"}], "candidate_count": 5, "zero_candidate": false}
{"pdf_atom_id": "ig34_p0354_a012", "pdf_atom_type": "SENTENCE", "pdf_source": "SDTMIG_v3.4", "pdf_page": 354, "pdf_parent_section": "§6.3.12.3 Tumor Identification/Tumor Results Examples", "pdf_verbatim": "Rows 1-6:\tShow for subject 44444 the target and non-target tumors identified by the investigator at the screening visit.", "figure_ref": null, "candidates": [{"md_atom_id": "md_dmTU_ex_a030", "md_file": "knowledge_base/domains/TU/examples.md", "md_atom_type": "NOTE", "md_parent_section": "§TU.2 [Example 2]", "md_verbatim": "**Rows 1-6:** Show for subject 44444 the target and non-target tumors identified by the investigator at the screening visit.", "score": 0.81, "match_basis": "verbatim_token+global_search"}, {"md_atom_id": "md_dmTU_ex_a029", "md_file": "knowledge_base/domains/TU/examples.md", "md_atom_type": "SENTENCE", "md_parent_section": "§TU.2 [Example 2]", "md_verbatim": "TU shows the target and non-target tumors identified by an investigator at a screening visit and also shows that the investigator determined at the week 6 visit that 1 of the previously identified tumors had split.", "score": 0.6316, "match_basis": "verbatim_token+global_search"}, {"md_atom_id": "md_dmTU_ex_a052", "md_file": "knowledge_base/domains/TU/examples.md", "md_atom_type": "SENTENCE", "md_parent_section": "§TU.3 [Example 3]", "md_verbatim": "TU shows the target and non-target tumors identified by a radiologist at a screening visit.", "score": 0.6254, "match_basis": "verbatim_token+global_search"}, {"md_atom_id": "md_dmTU_assn_a018", "md_file": "knowledge_base/domains/TU/assumptions.md", "md_atom_type": "SENTENCE", "md_parent_section": "§TU [TU — Assumptions]", "md_verbatim": "Example target tumor T04, identified at the screening visit, splits into 2 at week 16.", "score": 0.5437, "match_basis": "verbatim_token+global_search"}, {"md_atom_id": "md_dmRS_ex_a006", "md_file": "knowledge_base/domains/RS/examples.md", "md_atom_type": "SENTENCE", "md_parent_section": "§RS.1.1 [Example 1]", "md_verbatim": "**Rows 1-3:** Show the target response, non-target response, and the overall response by the investigator using RECIST 1.1 at the week 6 visit.", "score": 0.5174, "match_basis": "verbatim_token+global_search"}], "candidate_count": 5, "zero_candidate": false}
{"pdf_atom_id": "ig34_p0354_a013", "pdf_atom_type": "SENTENCE", "pdf_source": "SDTMIG_v3.4", "pdf_page": 354, "pdf_parent_section": "§6.3.12.3 Tumor Identification/Tumor Results Examples", "pdf_verbatim": "Rows 7-8:\tShow the investigator determined that a tumor (TULNKID = \"T04\" at screening) had split into 2 separate tumors at the week 6 visit. The 2 distinct pieces of the original tumor were then tracked independently from that point in the study forward.", "figure_ref": null, "candidates": [{"md_atom_id": "md_dmTU_ex_a031", "md_file": "knowledge_base/domains/TU/examples.md", "md_atom_type": "NOTE", "md_parent_section": "§TU.2 [Example 2]", "md_verbatim": "**Rows 7-8:** Show the investigator determined that a tumor (TULNKID = \"T04\" at screening) had split into 2 separate tumors at the week 6 visit. The 2 distinct pieces of the original tumor were then tracked independently from that point in the study forward.", "score": 0.81, "match_basis": "verbatim_token+global_search"}, {"md_atom_id": "md_dmTU_ex_a029", "md_file": "knowledge_base/domains/TU/examples.md", "md_atom_type": "SENTENCE", "md_parent_section": "§TU.2 [Example 2]", "md_verbatim": "TU shows the target and non-target tumors identified by an investigator at a screening visit and also shows that the investigator determined at the week 6 visit that 1 of the previously identified tumors had split.", "score": 0.519, "match_basis": "verbatim_token+global_search"}, {"md_atom_id": "md_dmSUPPQUAL_assn_a005", "md_file": "knowledge_base/domains/SUPPQUAL/assumptions.md", "md_atom_type": "SENTENCE", "md_parent_section": "§SUPPQUAL [SUPPQUAL — Assumptions]", "md_verbatim": "The combined set of values for the first 6 columns (STUDYID...QNAM) should be unique for every record. That is, there should not be multiple records in a SUPP-- dataset for the same QNAM value, as it relates to IDVAR/IDVARVAL for a USUBJID in a domain. For example, if 2 individuals (e.g., the investigator and an independent adjudicator) provide a determination regarding whether an adverse event is treatment-emergent, then separate QNAM values should be used for each set of information (e.g., \"AETRTEMI\", \"AETRTEMA\"). This is necessary to ensure that reviewers can join/merge/transpose the information back with the records in the original domain without risk of losing information.", "score": 0.4217, "match_basis": "verbatim_token+global_search"}, {"md_atom_id": "md_dmTU_assn_a018", "md_file": "knowledge_base/domains/TU/assumptions.md", "md_atom_type": "SENTENCE", "md_parent_section": "§TU [TU — Assumptions]", "md_verbatim": "Example target tumor T04, identified at the screening visit, splits into 2 at week 16.", "score": 0.42, "match_basis": "verbatim_token+global_search"}, {"md_atom_id": "md_ch08_a152", "md_file": "knowledge_base/chapters/ch08_relationships.md", "md_atom_type": "SENTENCE", "md_parent_section": "§8.4 [Relating Non-standard Variable Values to a Parent Domain]", "md_verbatim": "For example, if 2 individuals (e.g., the investigator and an independent adjudicator) provide a determination regarding whether an adverse event is treatment-emergent, then separate QNAM values should be used for each set of information (e.g., \"AETRTEMI\", \"AETRTEMA\").", "score": 0.4194, "match_basis": "verbatim_token+global_search"}], "candidate_count": 5, "zero_candidate": false}
{"pdf_atom_id": "ig34_p0354_a014", "pdf_atom_type": "CODE_LITERAL", "pdf_source": "SDTMIG_v3.4", "pdf_page": 354, "pdf_parent_section": "§6.3.12.3 Tumor Identification/Tumor Results Examples", "pdf_verbatim": "tu.xpt", "figure_ref": null, "candidates": [{"md_atom_id": "md_ch04_a207", "md_file": "knowledge_base/chapters/ch04_general_assumptions.md", "md_atom_type": "CODE_LITERAL", "md_parent_section": "§4.2.3 [Use of \"Subject\" and USUBJID]", "md_verbatim": "dm.xpt:", "score": 0.69, "match_basis": "verbatim_token+global_search"}, {"md_atom_id": "md_ch04_a210", "md_file": "knowledge_base/chapters/ch04_general_assumptions.md", "md_atom_type": "CODE_LITERAL", "md_parent_section": "§4.2.3 [Use of \"Subject\" and USUBJID]", "md_verbatim": "dm.xpt:", "score": 0.69, "match_basis": "verbatim_token+global_search"}, {"md_atom_id": "md_dmCM_ex_a010", "md_file": "knowledge_base/domains/CM/examples.md", "md_atom_type": "NOTE", "md_parent_section": "§CM.1 [Example 1]", "md_verbatim": "**cm.xpt**", "score": 0.69, "match_basis": "verbatim_token+global_search"}, {"md_atom_id": "md_dmCM_ex_a025", "md_file": "knowledge_base/domains/CM/examples.md", "md_atom_type": "NOTE", "md_parent_section": "§CM.2 [Example 2]", "md_verbatim": "**cm.xpt**", "score": 0.69, "match_basis": "verbatim_token+global_search"}, {"md_atom_id": "md_dmCM_ex_a042", "md_file": "knowledge_base/domains/CM/examples.md", "md_atom_type": "NOTE", "md_parent_section": "§CM.3 [Example 3]", "md_verbatim": "**cm.xpt**", "score": 0.69, "match_basis": "verbatim_token+global_search"}, {"md_atom_id": "md_dmCM_ex_a052", "md_file": "knowledge_base/domains/CM/examples.md", "md_atom_type": "NOTE", "md_parent_section": "§CM.4 [Example 4]", "md_verbatim": "**cm.xpt**", "score": 0.69, "match_basis": "verbatim_token+global_search"}, {"md_atom_id": "md_dmCM_ex_a070", "md_file": "knowledge_base/domains/CM/examples.md", "md_atom_type": "NOTE", "md_parent_section": "§CM.5 [Example 5]", "md_verbatim": "**cm.xpt**", "score": 0.69, "match_basis": "verbatim_token+global_search"}, {"md_atom_id": "md_ch04_a368", "md_file": "knowledge_base/chapters/ch04_general_assumptions.md", "md_atom_type": "CODE_LITERAL", "md_parent_section": "§4.2.8.3 [Multiple Values for a Non-result Qualifier Variable]", "md_verbatim": "ae.xpt:", "score": 0.69, "match_basis": "verbatim_token+global_search"}, {"md_atom_id": "md_ch04_a378", "md_file": "knowledge_base/chapters/ch04_general_assumptions.md", "md_atom_type": "CODE_LITERAL", "md_parent_section": "§4.2.8.3 [Multiple Values for a Non-result Qualifier Variable]", "md_verbatim": "ae.xpt:", "score": 0.69, "match_basis": "verbatim_token+global_search"}, {"md_atom_id": "md_ch04_a391", "md_file": "knowledge_base/chapters/ch04_general_assumptions.md", "md_atom_type": "CODE_LITERAL", "md_parent_section": "§4.2.8.3 [Multiple Values for a Non-result Qualifier Variable]", "md_verbatim": "ae.xpt:", "score": 0.69, "match_basis": "verbatim_token+global_search"}], "candidate_count": 10, "zero_candidate": false}
{"pdf_atom_id": "ig34_p0354_a015", "pdf_atom_type": "TABLE_HEADER", "pdf_source": "SDTMIG_v3.4", "pdf_page": 354, "pdf_parent_section": "§6.3.12.3 Tumor Identification/Tumor Results Examples", "pdf_verbatim": "| Row | STUDYID | DOMAIN | USUBJID | TUSEQ | TUGRPID | TULNKID | TUTESTCD | TUTEST | TUORRES | TUSTRESC | TULOC | TULAT | TUMETHOD | TUEVAL | VISITNUM | VISIT | TUDTC | TUDY |", "figure_ref": null, "candidates": [{"md_atom_id": "md_dmTU_ex_a033", "md_file": "knowledge_base/domains/TU/examples.md", "md_atom_type": "TABLE_HEADER", "md_parent_section": "§TU.2 [Example 2]", "md_verbatim": "| Row | STUDYID | DOMAIN | USUBJID | TUSEQ | TUGRPID | TULNKID | TUTESTCD | TUTEST | TUORRES | TUSTRESC | TULOC | TULAT | TUMETHOD | TUEVAL | VISITNUM | VISIT | TUDTC | TUDY |", "score": 0.9, "match_basis": "verbatim_token+global_search"}, {"md_atom_id": "md_dmTU_ex_a013", "md_file": "knowledge_base/domains/TU/examples.md", "md_atom_type": "TABLE_HEADER", "md_parent_section": "§TU.1 [Example 1]", "md_verbatim": "| Row | STUDYID | DOMAIN | USUBJID | TUSEQ | TULNKID | TUTESTCD | TUTEST | TUORRES | TUSTRESC | TULOC | TULAT | TUMETHOD | TUEVAL | VISITNUM | VISIT | TUDTC |", "score": 0.8538, "match_basis": "verbatim_token+global_search"}, {"md_atom_id": "md_dmTU_ex_a058", "md_file": "knowledge_base/domains/TU/examples.md", "md_atom_type": "TABLE_HEADER", "md_parent_section": "§TU.3 [Example 3]", "md_verbatim": "| Row | STUDYID | DOMAIN | USUBJID | TUSEQ | TULNKID | TUTESTCD | TUTEST | TUORRES | TUSTRESC | TULOC | TULAT | TUMETHOD | TUNAM | TUEVAL | TUEVALID | VISITNUM | VISIT | TUDTC |", "score": 0.8143, "match_basis": "verbatim_token+global_search"}, {"md_atom_id": "md_dmCV_ex_a005", "md_file": "knowledge_base/domains/CV/examples.md", "md_atom_type": "TABLE_HEADER", "md_parent_section": "§CV.1 [Example 1]", "md_verbatim": "| Row | STUDYID | DOMAIN | USUBJID | CVSEQ | CVGRPID | CVTESTCD | CVTEST | CVORRES | CVSTRESC | CVLOC | CVMETHOD | VISITNUM | VISIT | CVDTC |\n|-----|---------|--------|---------|-------|---------|----------|--------|---------|----------|-------|----------|----------|-------|-------|", "score": 0.6075, "match_basis": "verbatim_token+global_search"}, {"md_atom_id": "md_dmTR_ex_a054", "md_file": "knowledge_base/domains/TR/examples.md", "md_atom_type": "TABLE_HEADER", "md_parent_section": "§TR.2 [Example 3 (continued from TU)]", "md_verbatim": "| Row | STUDYID | DOMAIN | USUBJID | TRSEQ | TRGRPID | TRLNKGRP | TRLNKID | TRTESTCD | TRTEST | TRORRES | TRORRESU | TRSTRESC | TRSTRESN | TRSTRESU | TRMETHOD | TRNAM | TREVAL | TREVALID | VISITNUM | VISIT | TRDTC | TRDY |", "score": 0.5967, "match_basis": "verbatim_token+global_search"}], "candidate_count": 5, "zero_candidate": false}
{"pdf_atom_id": "ig34_p0354_a016", "pdf_atom_type": "TABLE_ROW", "pdf_source": "SDTMIG_v3.4", "pdf_page": 354, "pdf_parent_section": "§6.3.12.3 Tumor Identification/Tumor Results Examples", "pdf_verbatim": "| 1 | ABC | TU | 44444 | 1 | | T01 | TUMIDENT | Tumor Identification | TARGET | TARGET | LIVER | | CT SCAN | INVESTIGATOR | 10 | SCREEN | 2010-01-01 | -3 |", "figure_ref": null, "candidates": [{"md_atom_id": "md_dmTU_ex_a034", "md_file": "knowledge_base/domains/TU/examples.md", "md_atom_type": "TABLE_ROW", "md_parent_section": "§TU.2 [Example 2]", "md_verbatim": "| 1 | ABC | TU | 44444 | 1 | | T01 | TUMIDENT | Tumor Identification | TARGET | TARGET | LIVER | | CT SCAN | INVESTIGATOR | 10 | SCREEN | 2010-01-01 | -3 |", "score": 0.9, "match_basis": "verbatim_token+global_search"}, {"md_atom_id": "md_dmTU_ex_a035", "md_file": "knowledge_base/domains/TU/examples.md", "md_atom_type": "TABLE_ROW", "md_parent_section": "§TU.2 [Example 2]", "md_verbatim": "| 2 | ABC | TU | 44444 | 2 | | T02 | TUMIDENT | Tumor Identification | TARGET | TARGET | KIDNEY | RIGHT | CT SCAN | INVESTIGATOR | 10 | SCREEN | 2010-01-01 | -3 |", "score": 0.7642, "match_basis": "verbatim_token+global_search"}, {"md_atom_id": "md_dmTU_ex_a038", "md_file": "knowledge_base/domains/TU/examples.md", "md_atom_type": "TABLE_ROW", "md_parent_section": "§TU.2 [Example 2]", "md_verbatim": "| 5 | ABC | TU | 44444 | 5 | | NT01 | TUMIDENT | Tumor Identification | NON-TARGET | NON-TARGET | THYROID GLAND | RIGHT | CT SCAN | INVESTIGATOR | 10 | SCREEN | 2010-01-01 | -3 |", "score": 0.7345, "match_basis": "verbatim_token+global_search"}, {"md_atom_id": "md_dmTU_ex_a036", "md_file": "knowledge_base/domains/TU/examples.md", "md_atom_type": "TABLE_ROW", "md_parent_section": "§TU.2 [Example 2]", "md_verbatim": "| 3 | ABC | TU | 44444 | 3 | | T03 | TUMIDENT | Tumor Identification | TARGET | TARGET | CERVICAL LYMPH NODE | LEFT | MRI | INVESTIGATOR | 10 | SCREEN | 2010-01-02 | -2 |", "score": 0.6966, "match_basis": "verbatim_token+global_search"}, {"md_atom_id": "md_dmTU_ex_a039", "md_file": "knowledge_base/domains/TU/examples.md", "md_atom_type": "TABLE_ROW", "md_parent_section": "§TU.2 [Example 2]", "md_verbatim": "| 6 | ABC | TU | 44444 | 6 | | NT02 | TUMIDENT | Tumor Identification | NON-TARGET | NON-TARGET | CEREBELLUM | RIGHT | MRI | INVESTIGATOR | 10 | SCREEN | 2010-01-02 | -2 |", "score": 0.69, "match_basis": "verbatim_token+global_search"}], "candidate_count": 5, "zero_candidate": false}
{"pdf_atom_id": "ig34_p0354_a017", "pdf_atom_type": "TABLE_ROW", "pdf_source": "SDTMIG_v3.4", "pdf_page": 354, "pdf_parent_section": "§6.3.12.3 Tumor Identification/Tumor Results Examples", "pdf_verbatim": "| 2 | ABC | TU | 44444 | 2 | | T02 | TUMIDENT | Tumor Identification | TARGET | TARGET | KIDNEY | RIGHT | CT SCAN | INVESTIGATOR | 10 | SCREEN | 2010-01-01 | -3 |", "figure_ref": null, "candidates": [{"md_atom_id": "md_dmTU_ex_a035", "md_file": "knowledge_base/domains/TU/examples.md", "md_atom_type": "TABLE_ROW", "md_parent_section": "§TU.2 [Example 2]", "md_verbatim": "| 2 | ABC | TU | 44444 | 2 | | T02 | TUMIDENT | Tumor Identification | TARGET | TARGET | KIDNEY | RIGHT | CT SCAN | INVESTIGATOR | 10 | SCREEN | 2010-01-01 | -3 |", "score": 0.9, "match_basis": "verbatim_token+global_search"}, {"md_atom_id": "md_dmTU_ex_a034", "md_file": "knowledge_base/domains/TU/examples.md", "md_atom_type": "TABLE_ROW", "md_parent_section": "§TU.2 [Example 2]", "md_verbatim": "| 1 | ABC | TU | 44444 | 1 | | T01 | TUMIDENT | Tumor Identification | TARGET | TARGET | LIVER | | CT SCAN | INVESTIGATOR | 10 | SCREEN | 2010-01-01 | -3 |", "score": 0.7642, "match_basis": "verbatim_token+global_search"}, {"md_atom_id": "md_dmTU_ex_a038", "md_file": "knowledge_base/domains/TU/examples.md", "md_atom_type": "TABLE_ROW", "md_parent_section": "§TU.2 [Example 2]", "md_verbatim": "| 5 | ABC | TU | 44444 | 5 | | NT01 | TUMIDENT | Tumor Identification | NON-TARGET | NON-TARGET | THYROID GLAND | RIGHT | CT SCAN | INVESTIGATOR | 10 | SCREEN | 2010-01-01 | -3 |", "score": 0.74, "match_basis": "verbatim_token+global_search"}, {"md_atom_id": "md_dmTU_ex_a039", "md_file": "knowledge_base/domains/TU/examples.md", "md_atom_type": "TABLE_ROW", "md_parent_section": "§TU.2 [Example 2]", "md_verbatim": "| 6 | ABC | TU | 44444 | 6 | | NT02 | TUMIDENT | Tumor Identification | NON-TARGET | NON-TARGET | CEREBELLUM | RIGHT | MRI | INVESTIGATOR | 10 | SCREEN | 2010-01-02 | -2 |", "score": 0.73, "match_basis": "verbatim_token+global_search"}, {"md_atom_id": "md_dmTU_ex_a036", "md_file": "knowledge_base/domains/TU/examples.md", "md_atom_type": "TABLE_ROW", "md_parent_section": "§TU.2 [Example 2]", "md_verbatim": "| 3 | ABC | TU | 44444 | 3 | | T03 | TUMIDENT | Tumor Identification | TARGET | TARGET | CERVICAL LYMPH NODE | LEFT | MRI | INVESTIGATOR | 10 | SCREEN | 2010-01-02 | -2 |", "score": 0.6714, "match_basis": "verbatim_token+global_search"}], "candidate_count": 5, "zero_candidate": false}
{"pdf_atom_id": "ig34_p0354_a018", "pdf_atom_type": "TABLE_ROW", "pdf_source": "SDTMIG_v3.4", "pdf_page": 354, "pdf_parent_section": "§6.3.12.3 Tumor Identification/Tumor Results Examples", "pdf_verbatim": "| 3 | ABC | TU | 44444 | 3 | | T03 | TUMIDENT | Tumor Identification | TARGET | TARGET | CERVICAL LYMPH NODE | LEFT | MRI | INVESTIGATOR | 10 | SCREEN | 2010-01-02 | -2 |", "figure_ref": null, "candidates": [{"md_atom_id": "md_dmTU_ex_a036", "md_file": "knowledge_base/domains/TU/examples.md", "md_atom_type": "TABLE_ROW", "md_parent_section": "§TU.2 [Example 2]", "md_verbatim": "| 3 | ABC | TU | 44444 | 3 | | T03 | TUMIDENT | Tumor Identification | TARGET | TARGET | CERVICAL LYMPH NODE | LEFT | MRI | INVESTIGATOR | 10 | SCREEN | 2010-01-02 | -2 |", "score": 0.9, "match_basis": "verbatim_token+global_search"}, {"md_atom_id": "md_dmTU_ex_a034", "md_file": "knowledge_base/domains/TU/examples.md", "md_atom_type": "TABLE_ROW", "md_parent_section": "§TU.2 [Example 2]", "md_verbatim": "| 1 | ABC | TU | 44444 | 1 | | T01 | TUMIDENT | Tumor Identification | TARGET | TARGET | LIVER | | CT SCAN | INVESTIGATOR | 10 | SCREEN | 2010-01-01 | -3 |", "score": 0.6966, "match_basis": "verbatim_token+global_search"}, {"md_atom_id": "md_dmTU_ex_a039", "md_file": "knowledge_base/domains/TU/examples.md", "md_atom_type": "TABLE_ROW", "md_parent_section": "§TU.2 [Example 2]", "md_verbatim": "| 6 | ABC | TU | 44444 | 6 | | NT02 | TUMIDENT | Tumor Identification | NON-TARGET | NON-TARGET | CEREBELLUM | RIGHT | MRI | INVESTIGATOR | 10 | SCREEN | 2010-01-02 | -2 |", "score": 0.6727, "match_basis": "verbatim_token+global_search"}, {"md_atom_id": "md_dmTU_ex_a035", "md_file": "knowledge_base/domains/TU/examples.md", "md_atom_type": "TABLE_ROW", "md_parent_section": "§TU.2 [Example 2]", "md_verbatim": "| 2 | ABC | TU | 44444 | 2 | | T02 | TUMIDENT | Tumor Identification | TARGET | TARGET | KIDNEY | RIGHT | CT SCAN | INVESTIGATOR | 10 | SCREEN | 2010-01-01 | -3 |", "score": 0.6714, "match_basis": "verbatim_token+global_search"}, {"md_atom_id": "md_dmTU_ex_a037", "md_file": "knowledge_base/domains/TU/examples.md", "md_atom_type": "TABLE_ROW", "md_parent_section": "§TU.2 [Example 2]", "md_verbatim": "| 4 | ABC | TU | 44444 | 4 | | T04 | TUMIDENT | Tumor Identification | TARGET | TARGET | SKIN OF THE TRUNK | | PHOTOGRAPHY | INVESTIGATOR | 10 | SCREEN | 2010-01-03 | -1 |", "score": 0.6391, "match_basis": "verbatim_token+global_search"}], "candidate_count": 5, "zero_candidate": false}
{"pdf_atom_id": "ig34_p0354_a019", "pdf_atom_type": "TABLE_ROW", "pdf_source": "SDTMIG_v3.4", "pdf_page": 354, "pdf_parent_section": "§6.3.12.3 Tumor Identification/Tumor Results Examples", "pdf_verbatim": "| 4 | ABC | TU | 44444 | 4 | | T04 | TUMIDENT | Tumor Identification | TARGET | TARGET | SKIN OF THE TRUNK | | PHOTOGRAPHY | INVESTIGATOR | 10 | SCREEN | 2010-01-03 | -1 |", "figure_ref": null, "candidates": [{"md_atom_id": "md_dmTU_ex_a037", "md_file": "knowledge_base/domains/TU/examples.md", "md_atom_type": "TABLE_ROW", "md_parent_section": "§TU.2 [Example 2]", "md_verbatim": "| 4 | ABC | TU | 44444 | 4 | | T04 | TUMIDENT | Tumor Identification | TARGET | TARGET | SKIN OF THE TRUNK | | PHOTOGRAPHY | INVESTIGATOR | 10 | SCREEN | 2010-01-03 | -1 |", "score": 0.9, "match_basis": "verbatim_token+global_search"}, {"md_atom_id": "md_dmTU_ex_a034", "md_file": "knowledge_base/domains/TU/examples.md", "md_atom_type": "TABLE_ROW", "md_parent_section": "§TU.2 [Example 2]", "md_verbatim": "| 1 | ABC | TU | 44444 | 1 | | T01 | TUMIDENT | Tumor Identification | TARGET | TARGET | LIVER | | CT SCAN | INVESTIGATOR | 10 | SCREEN | 2010-01-01 | -3 |", "score": 0.6836, "match_basis": "verbatim_token+global_search"}, {"md_atom_id": "md_dmTU_ex_a035", "md_file": "knowledge_base/domains/TU/examples.md", "md_atom_type": "TABLE_ROW", "md_parent_section": "§TU.2 [Example 2]", "md_verbatim": "| 2 | ABC | TU | 44444 | 2 | | T02 | TUMIDENT | Tumor Identification | TARGET | TARGET | KIDNEY | RIGHT | CT SCAN | INVESTIGATOR | 10 | SCREEN | 2010-01-01 | -3 |", "score": 0.66, "match_basis": "verbatim_token+global_search"}, {"md_atom_id": "md_dmTU_ex_a040", "md_file": "knowledge_base/domains/TU/examples.md", "md_atom_type": "TABLE_ROW", "md_parent_section": "§TU.2 [Example 2]", "md_verbatim": "| 7 | ABC | TU | 44444 | 7 | T04 | T04.1 | TUSPLIT | Tumor Split | TARGET | TARGET | SKIN OF THE TRUNK | | PHOTOGRAPHY | INVESTIGATOR | 40 | WEEK 6 | 2010-02-20 | 48 |", "score": 0.6581, "match_basis": "verbatim_token+global_search"}, {"md_atom_id": "md_dmTU_ex_a041", "md_file": "knowledge_base/domains/TU/examples.md", "md_atom_type": "TABLE_ROW", "md_parent_section": "§TU.2 [Example 2]", "md_verbatim": "| 8 | ABC | TU | 44444 | 8 | T04 | T04.2 | TUSPLIT | Tumor Split | TARGET | TARGET | SKIN OF THE TRUNK | | PHOTOGRAPHY | INVESTIGATOR | 40 | WEEK 6 | 2010-02-20 | 48 |", "score": 0.6581, "match_basis": "verbatim_token+global_search"}], "candidate_count": 5, "zero_candidate": false}
{"pdf_atom_id": "ig34_p0354_a020", "pdf_atom_type": "TABLE_ROW", "pdf_source": "SDTMIG_v3.4", "pdf_page": 354, "pdf_parent_section": "§6.3.12.3 Tumor Identification/Tumor Results Examples", "pdf_verbatim": "| 5 | ABC | TU | 44444 | 5 | | NT01 | TUMIDENT | Tumor Identification | NON-TARGET | NON-TARGET | THYROID GLAND | RIGHT | CT SCAN | INVESTIGATOR | 10 | SCREEN | 2010-01-01 | -3 |", "figure_ref": null, "candidates": [{"md_atom_id": "md_dmTU_ex_a038", "md_file": "knowledge_base/domains/TU/examples.md", "md_atom_type": "TABLE_ROW", "md_parent_section": "§TU.2 [Example 2]", "md_verbatim": "| 5 | ABC | TU | 44444 | 5 | | NT01 | TUMIDENT | Tumor Identification | NON-TARGET | NON-TARGET | THYROID GLAND | RIGHT | CT SCAN | INVESTIGATOR | 10 | SCREEN | 2010-01-01 | -3 |", "score": 0.9, "match_basis": "verbatim_token+global_search"}, {"md_atom_id": "md_dmTU_ex_a035", "md_file": "knowledge_base/domains/TU/examples.md", "md_atom_type": "TABLE_ROW", "md_parent_section": "§TU.2 [Example 2]", "md_verbatim": "| 2 | ABC | TU | 44444 | 2 | | T02 | TUMIDENT | Tumor Identification | TARGET | TARGET | KIDNEY | RIGHT | CT SCAN | INVESTIGATOR | 10 | SCREEN | 2010-01-01 | -3 |", "score": 0.74, "match_basis": "verbatim_token+global_search"}, {"md_atom_id": "md_dmTU_ex_a034", "md_file": "knowledge_base/domains/TU/examples.md", "md_atom_type": "TABLE_ROW", "md_parent_section": "§TU.2 [Example 2]", "md_verbatim": "| 1 | ABC | TU | 44444 | 1 | | T01 | TUMIDENT | Tumor Identification | TARGET | TARGET | LIVER | | CT SCAN | INVESTIGATOR | 10 | SCREEN | 2010-01-01 | -3 |", "score": 0.7345, "match_basis": "verbatim_token+global_search"}, {"md_atom_id": "md_dmTU_ex_a039", "md_file": "knowledge_base/domains/TU/examples.md", "md_atom_type": "TABLE_ROW", "md_parent_section": "§TU.2 [Example 2]", "md_verbatim": "| 6 | ABC | TU | 44444 | 6 | | NT02 | TUMIDENT | Tumor Identification | NON-TARGET | NON-TARGET | CEREBELLUM | RIGHT | MRI | INVESTIGATOR | 10 | SCREEN | 2010-01-02 | -2 |", "score": 0.7062, "match_basis": "verbatim_token+global_search"}, {"md_atom_id": "md_dmTU_ex_a036", "md_file": "knowledge_base/domains/TU/examples.md", "md_atom_type": "TABLE_ROW", "md_parent_section": "§TU.2 [Example 2]", "md_verbatim": "| 3 | ABC | TU | 44444 | 3 | | T03 | TUMIDENT | Tumor Identification | TARGET | TARGET | CERVICAL LYMPH NODE | LEFT | MRI | INVESTIGATOR | 10 | SCREEN | 2010-01-02 | -2 |", "score": 0.6391, "match_basis": "verbatim_token+global_search"}], "candidate_count": 5, "zero_candidate": false}
{"pdf_atom_id": "ig34_p0354_a021", "pdf_atom_type": "TABLE_ROW", "pdf_source": "SDTMIG_v3.4", "pdf_page": 354, "pdf_parent_section": "§6.3.12.3 Tumor Identification/Tumor Results Examples", "pdf_verbatim": "| 6 | ABC | TU | 44444 | 6 | | NT02 | TUMIDENT | Tumor Identification | NON-TARGET | NON-TARGET | CEREBELLUM | RIGHT | MRI | INVESTIGATOR | 10 | SCREEN | 2010-01-02 | -2 |", "figure_ref": null, "candidates": [{"md_atom_id": "md_dmTU_ex_a039", "md_file": "knowledge_base/domains/TU/examples.md", "md_atom_type": "TABLE_ROW", "md_parent_section": "§TU.2 [Example 2]", "md_verbatim": "| 6 | ABC | TU | 44444 | 6 | | NT02 | TUMIDENT | Tumor Identification | NON-TARGET | NON-TARGET | CEREBELLUM | RIGHT | MRI | INVESTIGATOR | 10 | SCREEN | 2010-01-02 | -2 |", "score": 0.9, "match_basis": "verbatim_token+global_search"}, {"md_atom_id": "md_dmTU_ex_a035", "md_file": "knowledge_base/domains/TU/examples.md", "md_atom_type": "TABLE_ROW", "md_parent_section": "§TU.2 [Example 2]", "md_verbatim": "| 2 | ABC | TU | 44444 | 2 | | T02 | TUMIDENT | Tumor Identification | TARGET | TARGET | KIDNEY | RIGHT | CT SCAN | INVESTIGATOR | 10 | SCREEN | 2010-01-01 | -3 |", "score": 0.73, "match_basis": "verbatim_token+global_search"}, {"md_atom_id": "md_dmTU_ex_a038", "md_file": "knowledge_base/domains/TU/examples.md", "md_atom_type": "TABLE_ROW", "md_parent_section": "§TU.2 [Example 2]", "md_verbatim": "| 5 | ABC | TU | 44444 | 5 | | NT01 | TUMIDENT | Tumor Identification | NON-TARGET | NON-TARGET | THYROID GLAND | RIGHT | CT SCAN | INVESTIGATOR | 10 | SCREEN | 2010-01-01 | -3 |", "score": 0.7062, "match_basis": "verbatim_token+global_search"}, {"md_atom_id": "md_dmTU_ex_a034", "md_file": "knowledge_base/domains/TU/examples.md", "md_atom_type": "TABLE_ROW", "md_parent_section": "§TU.2 [Example 2]", "md_verbatim": "| 1 | ABC | TU | 44444 | 1 | | T01 | TUMIDENT | Tumor Identification | TARGET | TARGET | LIVER | | CT SCAN | INVESTIGATOR | 10 | SCREEN | 2010-01-01 | -3 |", "score": 0.69, "match_basis": "verbatim_token+global_search"}, {"md_atom_id": "md_dmTU_ex_a036", "md_file": "knowledge_base/domains/TU/examples.md", "md_atom_type": "TABLE_ROW", "md_parent_section": "§TU.2 [Example 2]", "md_verbatim": "| 3 | ABC | TU | 44444 | 3 | | T03 | TUMIDENT | Tumor Identification | TARGET | TARGET | CERVICAL LYMPH NODE | LEFT | MRI | INVESTIGATOR | 10 | SCREEN | 2010-01-02 | -2 |", "score": 0.6727, "match_basis": "verbatim_token+global_search"}], "candidate_count": 5, "zero_candidate": false}
{"pdf_atom_id": "ig34_p0354_a022", "pdf_atom_type": "TABLE_ROW", "pdf_source": "SDTMIG_v3.4", "pdf_page": 354, "pdf_parent_section": "§6.3.12.3 Tumor Identification/Tumor Results Examples", "pdf_verbatim": "| 7 | ABC | TU | 44444 | 7 | T04 | T04.1 | TUSPLIT | Tumor Split | TARGET | TARGET | SKIN OF THE TRUNK | | PHOTOGRAPHY | INVESTIGATOR | 40 | WEEK 6 | 2010-02-20 | 48 |", "figure_ref": null, "candidates": [{"md_atom_id": "md_dmTU_ex_a040", "md_file": "knowledge_base/domains/TU/examples.md", "md_atom_type": "TABLE_ROW", "md_parent_section": "§TU.2 [Example 2]", "md_verbatim": "| 7 | ABC | TU | 44444 | 7 | T04 | T04.1 | TUSPLIT | Tumor Split | TARGET | TARGET | SKIN OF THE TRUNK | | PHOTOGRAPHY | INVESTIGATOR | 40 | WEEK 6 | 2010-02-20 | 48 |", "score": 0.9, "match_basis": "verbatim_token+global_search"}, {"md_atom_id": "md_dmTU_ex_a041", "md_file": "knowledge_base/domains/TU/examples.md", "md_atom_type": "TABLE_ROW", "md_parent_section": "§TU.2 [Example 2]", "md_verbatim": "| 8 | ABC | TU | 44444 | 8 | T04 | T04.2 | TUSPLIT | Tumor Split | TARGET | TARGET | SKIN OF THE TRUNK | | PHOTOGRAPHY | INVESTIGATOR | 40 | WEEK 6 | 2010-02-20 | 48 |", "score": 0.9, "match_basis": "verbatim_token+global_search"}, {"md_atom_id": "md_dmTR_ex_a026", "md_file": "knowledge_base/domains/TR/examples.md", "md_atom_type": "TABLE_ROW", "md_parent_section": "§TR.1 [Example 2 (continued from TU)]", "md_verbatim": "| 12 | ABC | TR | 44444 | 12 | TARGET | A2 | T04.1 | DIAMETER | Diameter | 6 | mm | 6 | 6 | mm | | | PHOTOGRAPHY | INVESTIGATOR | 40 | WEEK 6 | 2010-02-20 | 48 |", "score": 0.66, "match_basis": "verbatim_token+global_search"}, {"md_atom_id": "md_dmTR_ex_a027", "md_file": "knowledge_base/domains/TR/examples.md", "md_atom_type": "TABLE_ROW", "md_parent_section": "§TR.1 [Example 2 (continued from TU)]", "md_verbatim": "| 13 | ABC | TR | 44444 | 13 | TARGET | A2 | T04.2 | DIAMETER | Diameter | 7 | mm | 7 | 7 | mm | | | PHOTOGRAPHY | INVESTIGATOR | 40 | WEEK 6 | 2010-02-20 | 48 |", "score": 0.66, "match_basis": "verbatim_token+global_search"}, {"md_atom_id": "md_dmTU_ex_a037", "md_file": "knowledge_base/domains/TU/examples.md", "md_atom_type": "TABLE_ROW", "md_parent_section": "§TU.2 [Example 2]", "md_verbatim": "| 4 | ABC | TU | 44444 | 4 | | T04 | TUMIDENT | Tumor Identification | TARGET | TARGET | SKIN OF THE TRUNK | | PHOTOGRAPHY | INVESTIGATOR | 10 | SCREEN | 2010-01-03 | -1 |", "score": 0.6581, "match_basis": "verbatim_token+global_search"}], "candidate_count": 5, "zero_candidate": false}
{"pdf_atom_id": "ig34_p0354_a023", "pdf_atom_type": "TABLE_ROW", "pdf_source": "SDTMIG_v3.4", "pdf_page": 354, "pdf_parent_section": "§6.3.12.3 Tumor Identification/Tumor Results Examples", "pdf_verbatim": "| 8 | ABC | TU | 44444 | 8 | T04 | T04.2 | TUSPLIT | Tumor Split | TARGET | TARGET | SKIN OF THE TRUNK | | PHOTOGRAPHY | INVESTIGATOR | 40 | WEEK 6 | 2010-02-20 | 48 |", "figure_ref": null, "candidates": [{"md_atom_id": "md_dmTU_ex_a040", "md_file": "knowledge_base/domains/TU/examples.md", "md_atom_type": "TABLE_ROW", "md_parent_section": "§TU.2 [Example 2]", "md_verbatim": "| 7 | ABC | TU | 44444 | 7 | T04 | T04.1 | TUSPLIT | Tumor Split | TARGET | TARGET | SKIN OF THE TRUNK | | PHOTOGRAPHY | INVESTIGATOR | 40 | WEEK 6 | 2010-02-20 | 48 |", "score": 0.9, "match_basis": "verbatim_token+global_search"}, {"md_atom_id": "md_dmTU_ex_a041", "md_file": "knowledge_base/domains/TU/examples.md", "md_atom_type": "TABLE_ROW", "md_parent_section": "§TU.2 [Example 2]", "md_verbatim": "| 8 | ABC | TU | 44444 | 8 | T04 | T04.2 | TUSPLIT | Tumor Split | TARGET | TARGET | SKIN OF THE TRUNK | | PHOTOGRAPHY | INVESTIGATOR | 40 | WEEK 6 | 2010-02-20 | 48 |", "score": 0.9, "match_basis": "verbatim_token+global_search"}, {"md_atom_id": "md_dmTR_ex_a026", "md_file": "knowledge_base/domains/TR/examples.md", "md_atom_type": "TABLE_ROW", "md_parent_section": "§TR.1 [Example 2 (continued from TU)]", "md_verbatim": "| 12 | ABC | TR | 44444 | 12 | TARGET | A2 | T04.1 | DIAMETER | Diameter | 6 | mm | 6 | 6 | mm | | | PHOTOGRAPHY | INVESTIGATOR | 40 | WEEK 6 | 2010-02-20 | 48 |", "score": 0.66, "match_basis": "verbatim_token+global_search"}, {"md_atom_id": "md_dmTR_ex_a027", "md_file": "knowledge_base/domains/TR/examples.md", "md_atom_type": "TABLE_ROW", "md_parent_section": "§TR.1 [Example 2 (continued from TU)]", "md_verbatim": "| 13 | ABC | TR | 44444 | 13 | TARGET | A2 | T04.2 | DIAMETER | Diameter | 7 | mm | 7 | 7 | mm | | | PHOTOGRAPHY | INVESTIGATOR | 40 | WEEK 6 | 2010-02-20 | 48 |", "score": 0.66, "match_basis": "verbatim_token+global_search"}, {"md_atom_id": "md_dmTU_ex_a037", "md_file": "knowledge_base/domains/TU/examples.md", "md_atom_type": "TABLE_ROW", "md_parent_section": "§TU.2 [Example 2]", "md_verbatim": "| 4 | ABC | TU | 44444 | 4 | | T04 | TUMIDENT | Tumor Identification | TARGET | TARGET | SKIN OF THE TRUNK | | PHOTOGRAPHY | INVESTIGATOR | 10 | SCREEN | 2010-01-03 | -1 |", "score": 0.6581, "match_basis": "verbatim_token+global_search"}], "candidate_count": 5, "zero_candidate": false}
{"pdf_atom_id": "ig34_p0354_a024", "pdf_atom_type": "SENTENCE", "pdf_source": "SDTMIG_v3.4", "pdf_page": 354, "pdf_parent_section": "§6.3.12.3 Tumor Identification/Tumor Results Examples", "pdf_verbatim": "The supplemental qualifier dataset below shows that \"T01\", \"T02\", and \"T04\" were not previously irradiated and \"T03\" was previously irradiated with subsequent progression after irradiation.", "figure_ref": null, "candidates": [{"md_atom_id": "md_dmTU_ex_a042", "md_file": "knowledge_base/domains/TU/examples.md", "md_atom_type": "SENTENCE", "md_parent_section": "§TU.2 [Example 2]", "md_verbatim": "The supplemental qualifier dataset below shows that \"T01\", \"T02\", and \"T04\" were not previously irradiated and \"T03\" was previously irradiated with subsequent progression after irradiation.", "score": 0.9, "match_basis": "verbatim_token+global_search"}, {"md_atom_id": "md_dmNV_ex_a016", "md_file": "knowledge_base/domains/NV/examples.md", "md_atom_type": "SENTENCE", "md_parent_section": "§NV.1 [Example 1]", "md_verbatim": "The reference region used for the SUVR tests shown is represented in a supplemental qualifiers dataset.", "score": 0.4748, "match_basis": "verbatim_token+global_search"}, {"md_atom_id": "md_ch08_a200", "md_file": "knowledge_base/chapters/ch08_relationships.md", "md_atom_type": "SENTENCE", "md_parent_section": "§8.4.4 [When Not to Use Supplemental Qualifiers]", "md_verbatim": "The following are examples of data that should **not** be submitted as supplemental qualifiers:", "score": 0.462, "match_basis": "verbatim_token+global_search"}, {"md_atom_id": "md_dmSUPPQUAL_assn_a011", "md_file": "knowledge_base/domains/SUPPQUAL/assumptions.md", "md_atom_type": "SENTENCE", "md_parent_section": "§SUPPQUAL [SUPPQUAL — Assumptions]", "md_verbatim": "The following are examples of data that should **not** be submitted as supplemental qualifiers:", "score": 0.462, "match_basis": "verbatim_token+global_search"}, {"md_atom_id": "md_ch03_a088", "md_file": "knowledge_base/chapters/ch03_submitting_data.md", "md_atom_type": "SENTENCE", "md_parent_section": "§3.2.1 [Dataset-level Metadata]", "md_verbatim": "Separate Supplemental Qualifier datasets of the form supp--.xpt are required.", "score": 0.4596, "match_basis": "verbatim_token+global_search"}], "candidate_count": 5, "zero_candidate": false}
{"pdf_atom_id": "ig34_p0354_a025", "pdf_atom_type": "CODE_LITERAL", "pdf_source": "SDTMIG_v3.4", "pdf_page": 354, "pdf_parent_section": "§6.3.12.3 Tumor Identification/Tumor Results Examples", "pdf_verbatim": "supptu.xpt", "figure_ref": null, "candidates": [{"md_atom_id": "md_dmTU_ex_a020", "md_file": "knowledge_base/domains/TU/examples.md", "md_atom_type": "CODE_LITERAL", "md_parent_section": "§TU.1 [Example 1]", "md_verbatim": "**supptu.xpt**", "score": 0.69, "match_basis": "verbatim_token+global_search"}, {"md_atom_id": "md_dmTU_ex_a043", "md_file": "knowledge_base/domains/TU/examples.md", "md_atom_type": "CODE_LITERAL", "md_parent_section": "§TU.2 [Example 2]", "md_verbatim": "**supptu.xpt**", "score": 0.69, "match_basis": "verbatim_token+global_search"}, {"md_atom_id": "md_dmPP_ex_a035", "md_file": "knowledge_base/domains/PP/examples.md", "md_atom_type": "SENTENCE", "md_parent_section": "§PP.1 [Example 1]", "md_verbatim": "**supppp.xpt**", "score": 0.39, "match_basis": "verbatim_token+global_search"}, {"md_atom_id": "md_ch04_a371", "md_file": "knowledge_base/chapters/ch04_general_assumptions.md", "md_atom_type": "CODE_LITERAL", "md_parent_section": "§4.2.8.3 [Multiple Values for a Non-result Qualifier Variable]", "md_verbatim": "suppae.xpt:", "score": 0.3471, "match_basis": "verbatim_token+global_search"}, {"md_atom_id": "md_ch04_a381", "md_file": "knowledge_base/chapters/ch04_general_assumptions.md", "md_atom_type": "CODE_LITERAL", "md_parent_section": "§4.2.8.3 [Multiple Values for a Non-result Qualifier Variable]", "md_verbatim": "suppae.xpt:", "score": 0.3471, "match_basis": "verbatim_token+global_search"}, {"md_atom_id": "md_ch04_a394", "md_file": "knowledge_base/chapters/ch04_general_assumptions.md", "md_atom_type": "CODE_LITERAL", "md_parent_section": "§4.2.8.3 [Multiple Values for a Non-result Qualifier Variable]", "md_verbatim": "suppae.xpt:", "score": 0.3471, "match_basis": "verbatim_token+global_search"}, {"md_atom_id": "md_ch04_a918", "md_file": "knowledge_base/chapters/ch04_general_assumptions.md", "md_atom_type": "CODE_LITERAL", "md_parent_section": "§4.5.3.2 [Text Strings Greater than 200 Characters in Other Variables]", "md_verbatim": "suppmh.xpt", "score": 0.3471, "match_basis": "verbatim_token+global_search"}, {"md_atom_id": "md_ch04_a922", "md_file": "knowledge_base/chapters/ch04_general_assumptions.md", "md_atom_type": "SENTENCE", "md_parent_section": "§4.5.3.2 [Text Strings Greater than 200 Characters in Other Variables]", "md_verbatim": "suppmh.xpt:", "score": 0.3471, "match_basis": "verbatim_token+global_search"}, {"md_atom_id": "md_ch04_a928", "md_file": "knowledge_base/chapters/ch04_general_assumptions.md", "md_atom_type": "CODE_LITERAL", "md_parent_section": "§4.5.3.2 [Text Strings Greater than 200 Characters in Other Variables]", "md_verbatim": "suppae.xpt", "score": 0.3471, "match_basis": "verbatim_token+global_search"}, {"md_atom_id": "md_ch04_a932", "md_file": "knowledge_base/chapters/ch04_general_assumptions.md", "md_atom_type": "SENTENCE", "md_parent_section": "§4.5.3.2 [Text Strings Greater than 200 Characters in Other Variables]", "md_verbatim": "suppae.xpt:", "score": 0.3471, "match_basis": "verbatim_token+global_search"}], "candidate_count": 10, "zero_candidate": false}
{"pdf_atom_id": "ig34_p0354_a026", "pdf_atom_type": "TABLE_HEADER", "pdf_source": "SDTMIG_v3.4", "pdf_page": 354, "pdf_parent_section": "§6.3.12.3 Tumor Identification/Tumor Results Examples", "pdf_verbatim": "| Row | STUDYID | RDOMAIN | USUBJID | IDVAR | IDVARVAL | QNAM | QLABEL | QVAL |", "figure_ref": null, "candidates": [{"md_atom_id": "md_dmNV_ex_a018", "md_file": "knowledge_base/domains/NV/examples.md", "md_atom_type": "TABLE_HEADER", "md_parent_section": "§NV.1 [Example 1]", "md_verbatim": "| Row | STUDYID | RDOMAIN | USUBJID | IDVAR | IDVARVAL | QNAM | QLABEL | QVAL |\n|-----|---------|---------|---------|-------|----------|------|--------|------|", "score": 0.9, "match_basis": "verbatim_token+global_search"}, {"md_atom_id": "md_dmOE_ex_a013", "md_file": "knowledge_base/domains/OE/examples.md", "md_atom_type": "TABLE_HEADER", "md_parent_section": "§OE.1 [Example 1]", "md_verbatim": "| Row | STUDYID | RDOMAIN | USUBJID | IDVAR | IDVARVAL | QNAM | QLABEL | QVAL |\n|-----|---------|---------|---------|-------|----------|------|--------|------|", "score": 0.9, "match_basis": "verbatim_token+global_search"}, {"md_atom_id": "md_dmOE_ex_a037", "md_file": "knowledge_base/domains/OE/examples.md", "md_atom_type": "TABLE_HEADER", "md_parent_section": "§OE.2 [Example 2]", "md_verbatim": "| Row | STUDYID | RDOMAIN | USUBJID | IDVAR | IDVARVAL | QNAM | QLABEL | QVAL |\n|-----|---------|---------|---------|-------|----------|------|--------|------|", "score": 0.9, "match_basis": "verbatim_token+global_search"}, {"md_atom_id": "md_dmOE_ex_a058", "md_file": "knowledge_base/domains/OE/examples.md", "md_atom_type": "TABLE_HEADER", "md_parent_section": "§OE.3 [Example 3]", "md_verbatim": "| Row | STUDYID | RDOMAIN | USUBJID | IDVAR | IDVARVAL | QNAM | QLABEL | QVAL |\n|-----|---------|---------|---------|-------|----------|------|--------|------|", "score": 0.9, "match_basis": "verbatim_token+global_search"}, {"md_atom_id": "md_dmOE_ex_a099", "md_file": "knowledge_base/domains/OE/examples.md", "md_atom_type": "TABLE_HEADER", "md_parent_section": "§OE.4 [Example 4]", "md_verbatim": "| Row | STUDYID | RDOMAIN | USUBJID | IDVAR | IDVARVAL | QNAM | QLABEL | QVAL |\n|-----|---------|---------|---------|-------|----------|------|--------|------|", "score": 0.9, "match_basis": "verbatim_token+global_search"}], "candidate_count": 5, "zero_candidate": false}
{"pdf_atom_id": "ig34_p0354_a027", "pdf_atom_type": "TABLE_ROW", "pdf_source": "SDTMIG_v3.4", "pdf_page": 354, "pdf_parent_section": "§6.3.12.3 Tumor Identification/Tumor Results Examples", "pdf_verbatim": "| 1 | ABC | TU | 44444 | TULNKID | T01 | TUPREVIR | Previously Irradiated | N |", "figure_ref": null, "candidates": [{"md_atom_id": "md_dmTU_ex_a045", "md_file": "knowledge_base/domains/TU/examples.md", "md_atom_type": "TABLE_ROW", "md_parent_section": "§TU.2 [Example 2]", "md_verbatim": "| 1 | ABC | TU | 44444 | TULNKID | T01 | TUPREVIR | Previously Irradiated | N |", "score": 0.9, "match_basis": "verbatim_token+global_search"}, {"md_atom_id": "md_dmTU_ex_a046", "md_file": "knowledge_base/domains/TU/examples.md", "md_atom_type": "TABLE_ROW", "md_parent_section": "§TU.2 [Example 2]", "md_verbatim": "| 2 | ABC | TU | 44444 | TULNKID | T02 | TUPREVIR | Previously Irradiated | N |", "score": 0.8571, "match_basis": "verbatim_token+global_search"}, {"md_atom_id": "md_dmTU_ex_a047", "md_file": "knowledge_base/domains/TU/examples.md", "md_atom_type": "TABLE_ROW", "md_parent_section": "§TU.2 [Example 2]", "md_verbatim": "| 3 | ABC | TU | 44444 | TULNKID | T03 | TUPREVIR | Previously Irradiated | Y |", "score": 0.8571, "match_basis": "verbatim_token+global_search"}, {"md_atom_id": "md_dmTU_ex_a049", "md_file": "knowledge_base/domains/TU/examples.md", "md_atom_type": "TABLE_ROW", "md_parent_section": "§TU.2 [Example 2]", "md_verbatim": "| 5 | ABC | TU | 44444 | TULNKID | T04 | TUPREVIR | Previously Irradiated | N |", "score": 0.8571, "match_basis": "verbatim_token+global_search"}, {"md_atom_id": "md_dmTU_assn_a072", "md_file": "knowledge_base/domains/TU/assumptions.md", "md_atom_type": "TABLE_ROW", "md_parent_section": "§TU [TU — Assumptions]", "md_verbatim": "| TUPREVIR | Previously Irradiated | Indication of previous irradiation to a tumor |", "score": 0.6, "match_basis": "verbatim_token+global_search"}], "candidate_count": 5, "zero_candidate": false}
{"pdf_atom_id": "ig34_p0354_a028", "pdf_atom_type": "TABLE_ROW", "pdf_source": "SDTMIG_v3.4", "pdf_page": 354, "pdf_parent_section": "§6.3.12.3 Tumor Identification/Tumor Results Examples", "pdf_verbatim": "| 2 | ABC | TU | 44444 | TULNKID | T02 | TUPREVIR | Previously Irradiated | N |", "figure_ref": null, "candidates": [{"md_atom_id": "md_dmTU_ex_a046", "md_file": "knowledge_base/domains/TU/examples.md", "md_atom_type": "TABLE_ROW", "md_parent_section": "§TU.2 [Example 2]", "md_verbatim": "| 2 | ABC | TU | 44444 | TULNKID | T02 | TUPREVIR | Previously Irradiated | N |", "score": 0.9, "match_basis": "verbatim_token+global_search"}, {"md_atom_id": "md_dmTU_ex_a045", "md_file": "knowledge_base/domains/TU/examples.md", "md_atom_type": "TABLE_ROW", "md_parent_section": "§TU.2 [Example 2]", "md_verbatim": "| 1 | ABC | TU | 44444 | TULNKID | T01 | TUPREVIR | Previously Irradiated | N |", "score": 0.8571, "match_basis": "verbatim_token+global_search"}, {"md_atom_id": "md_dmTU_ex_a047", "md_file": "knowledge_base/domains/TU/examples.md", "md_atom_type": "TABLE_ROW", "md_parent_section": "§TU.2 [Example 2]", "md_verbatim": "| 3 | ABC | TU | 44444 | TULNKID | T03 | TUPREVIR | Previously Irradiated | Y |", "score": 0.8571, "match_basis": "verbatim_token+global_search"}, {"md_atom_id": "md_dmTU_ex_a049", "md_file": "knowledge_base/domains/TU/examples.md", "md_atom_type": "TABLE_ROW", "md_parent_section": "§TU.2 [Example 2]", "md_verbatim": "| 5 | ABC | TU | 44444 | TULNKID | T04 | TUPREVIR | Previously Irradiated | N |", "score": 0.8571, "match_basis": "verbatim_token+global_search"}, {"md_atom_id": "md_dmTU_assn_a072", "md_file": "knowledge_base/domains/TU/assumptions.md", "md_atom_type": "TABLE_ROW", "md_parent_section": "§TU [TU — Assumptions]", "md_verbatim": "| TUPREVIR | Previously Irradiated | Indication of previous irradiation to a tumor |", "score": 0.6, "match_basis": "verbatim_token+global_search"}], "candidate_count": 5, "zero_candidate": false}
{"pdf_atom_id": "ig34_p0354_a029", "pdf_atom_type": "TABLE_ROW", "pdf_source": "SDTMIG_v3.4", "pdf_page": 354, "pdf_parent_section": "§6.3.12.3 Tumor Identification/Tumor Results Examples", "pdf_verbatim": "| 3 | ABC | TU | 44444 | TULNKID | T03 | TUPREVIR | Previously Irradiated | Y |", "figure_ref": null, "candidates": [{"md_atom_id": "md_dmTU_ex_a047", "md_file": "knowledge_base/domains/TU/examples.md", "md_atom_type": "TABLE_ROW", "md_parent_section": "§TU.2 [Example 2]", "md_verbatim": "| 3 | ABC | TU | 44444 | TULNKID | T03 | TUPREVIR | Previously Irradiated | Y |", "score": 0.9, "match_basis": "verbatim_token+global_search"}, {"md_atom_id": "md_dmTU_ex_a045", "md_file": "knowledge_base/domains/TU/examples.md", "md_atom_type": "TABLE_ROW", "md_parent_section": "§TU.2 [Example 2]", "md_verbatim": "| 1 | ABC | TU | 44444 | TULNKID | T01 | TUPREVIR | Previously Irradiated | N |", "score": 0.8571, "match_basis": "verbatim_token+global_search"}, {"md_atom_id": "md_dmTU_ex_a046", "md_file": "knowledge_base/domains/TU/examples.md", "md_atom_type": "TABLE_ROW", "md_parent_section": "§TU.2 [Example 2]", "md_verbatim": "| 2 | ABC | TU | 44444 | TULNKID | T02 | TUPREVIR | Previously Irradiated | N |", "score": 0.8571, "match_basis": "verbatim_token+global_search"}, {"md_atom_id": "md_dmTU_ex_a049", "md_file": "knowledge_base/domains/TU/examples.md", "md_atom_type": "TABLE_ROW", "md_parent_section": "§TU.2 [Example 2]", "md_verbatim": "| 5 | ABC | TU | 44444 | TULNKID | T04 | TUPREVIR | Previously Irradiated | N |", "score": 0.8571, "match_basis": "verbatim_token+global_search"}, {"md_atom_id": "md_dmTU_assn_a072", "md_file": "knowledge_base/domains/TU/assumptions.md", "md_atom_type": "TABLE_ROW", "md_parent_section": "§TU [TU — Assumptions]", "md_verbatim": "| TUPREVIR | Previously Irradiated | Indication of previous irradiation to a tumor |", "score": 0.6, "match_basis": "verbatim_token+global_search"}], "candidate_count": 5, "zero_candidate": false}
{"pdf_atom_id": "ig34_p0354_a030", "pdf_atom_type": "TABLE_ROW", "pdf_source": "SDTMIG_v3.4", "pdf_page": 354, "pdf_parent_section": "§6.3.12.3 Tumor Identification/Tumor Results Examples", "pdf_verbatim": "| 4 | ABC | TU | 44444 | TULNKID | T03 | TUPREISP | Irradiated then Subsequent Progression | Y |", "figure_ref": null, "candidates": [{"md_atom_id": "md_dmTU_ex_a048", "md_file": "knowledge_base/domains/TU/examples.md", "md_atom_type": "TABLE_ROW", "md_parent_section": "§TU.2 [Example 2]", "md_verbatim": "| 4 | ABC | TU | 44444 | TULNKID | T03 | TUPREISP | Irradiated then Subsequent Progression | Y |", "score": 0.9, "match_basis": "verbatim_token+global_search"}, {"md_atom_id": "md_dmTU_assn_a073", "md_file": "knowledge_base/domains/TU/assumptions.md", "md_atom_type": "TABLE_ROW", "md_parent_section": "§TU [TU — Assumptions]", "md_verbatim": "| TUPREISP | Irradiated then Subsequent Progression | Indication of documented progression subsequent to irradiation |", "score": 0.6667, "match_basis": "verbatim_token+global_search"}, {"md_atom_id": "md_dmTU_ex_a047", "md_file": "knowledge_base/domains/TU/examples.md", "md_atom_type": "TABLE_ROW", "md_parent_section": "§TU.2 [Example 2]", "md_verbatim": "| 3 | ABC | TU | 44444 | TULNKID | T03 | TUPREVIR | Previously Irradiated | Y |", "score": 0.5327, "match_basis": "verbatim_token+global_search"}, {"md_atom_id": "md_dmTU_ex_a045", "md_file": "knowledge_base/domains/TU/examples.md", "md_atom_type": "TABLE_ROW", "md_parent_section": "§TU.2 [Example 2]", "md_verbatim": "| 1 | ABC | TU | 44444 | TULNKID | T01 | TUPREVIR | Previously Irradiated | N |", "score": 0.516, "match_basis": "verbatim_token+global_search"}, {"md_atom_id": "md_dmTU_ex_a046", "md_file": "knowledge_base/domains/TU/examples.md", "md_atom_type": "TABLE_ROW", "md_parent_section": "§TU.2 [Example 2]", "md_verbatim": "| 2 | ABC | TU | 44444 | TULNKID | T02 | TUPREVIR | Previously Irradiated | N |", "score": 0.516, "match_basis": "verbatim_token+global_search"}], "candidate_count": 5, "zero_candidate": false}
{"pdf_atom_id": "ig34_p0354_a031", "pdf_atom_type": "TABLE_ROW", "pdf_source": "SDTMIG_v3.4", "pdf_page": 354, "pdf_parent_section": "§6.3.12.3 Tumor Identification/Tumor Results Examples", "pdf_verbatim": "| 5 | ABC | TU | 44444 | TULNKID | T04 | TUPREVIR | Previously Irradiated | N |", "figure_ref": null, "candidates": [{"md_atom_id": "md_dmTU_ex_a049", "md_file": "knowledge_base/domains/TU/examples.md", "md_atom_type": "TABLE_ROW", "md_parent_section": "§TU.2 [Example 2]", "md_verbatim": "| 5 | ABC | TU | 44444 | TULNKID | T04 | TUPREVIR | Previously Irradiated | N |", "score": 0.9, "match_basis": "verbatim_token+global_search"}, {"md_atom_id": "md_dmTU_ex_a045", "md_file": "knowledge_base/domains/TU/examples.md", "md_atom_type": "TABLE_ROW", "md_parent_section": "§TU.2 [Example 2]", "md_verbatim": "| 1 | ABC | TU | 44444 | TULNKID | T01 | TUPREVIR | Previously Irradiated | N |", "score": 0.8571, "match_basis": "verbatim_token+global_search"}, {"md_atom_id": "md_dmTU_ex_a046", "md_file": "knowledge_base/domains/TU/examples.md", "md_atom_type": "TABLE_ROW", "md_parent_section": "§TU.2 [Example 2]", "md_verbatim": "| 2 | ABC | TU | 44444 | TULNKID | T02 | TUPREVIR | Previously Irradiated | N |", "score": 0.8571, "match_basis": "verbatim_token+global_search"}, {"md_atom_id": "md_dmTU_ex_a047", "md_file": "knowledge_base/domains/TU/examples.md", "md_atom_type": "TABLE_ROW", "md_parent_section": "§TU.2 [Example 2]", "md_verbatim": "| 3 | ABC | TU | 44444 | TULNKID | T03 | TUPREVIR | Previously Irradiated | Y |", "score": 0.8571, "match_basis": "verbatim_token+global_search"}, {"md_atom_id": "md_dmTU_assn_a072", "md_file": "knowledge_base/domains/TU/assumptions.md", "md_atom_type": "TABLE_ROW", "md_parent_section": "§TU [TU — Assumptions]", "md_verbatim": "| TUPREVIR | Previously Irradiated | Indication of previous irradiation to a tumor |", "score": 0.6, "match_basis": "verbatim_token+global_search"}], "candidate_count": 5, "zero_candidate": false}
{"pdf_atom_id": "ig34_p0354_a032", "pdf_atom_type": "SENTENCE", "pdf_source": "SDTMIG_v3.4", "pdf_page": 354, "pdf_parent_section": "§6.3.12.3 Tumor Identification/Tumor Results Examples", "pdf_verbatim": "TR shows measurements (i.e., short axis) of lymph nodes as well as measurements of other non-lymph node target tumors (i.e., longest diameter). In this example, when TRTEST = \"Tumor State\" and TRORRES = \"ABSENT\", it indicates that the target lymph node lesion was no longer pathological (i.e., diameter reduced below 10mm). The overall assessment of lymph nodes is represented with TRTEST = \"Lymph Nodes State\". A lymph node state of \"NON-PATHOLOGICAL\" means that all target lymph node lesions have a short axis less than 10mm. A lymph node state of \"PATHOLOGICAL\" means that at least 1 target lymph node lesion has a short axis greater than or equal to 10mm.", "figure_ref": null, "candidates": [{"md_atom_id": "md_dmTR_ex_a005", "md_file": "knowledge_base/domains/TR/examples.md", "md_atom_type": "SENTENCE", "md_parent_section": "§TR.1 [Example 2 (continued from TU)]", "md_verbatim": "In this example, when TRTEST = \"Tumor State\" and TRORRES = \"ABSENT\", it indicates that the target lymph node lesion was no longer pathological (i.e., diameter reduced below 10mm).", "score": 0.6478, "match_basis": "verbatim_token+global_search"}, {"md_atom_id": "md_dmTR_ex_a008", "md_file": "knowledge_base/domains/TR/examples.md", "md_atom_type": "SENTENCE", "md_parent_section": "§TR.1 [Example 2 (continued from TU)]", "md_verbatim": "A lymph node state of \"PATHOLOGICAL\" means that at least 1 target lymph node lesion has a short axis greater than or equal to 10mm.", "score": 0.5174, "match_basis": "verbatim_token+global_search"}, {"md_atom_id": "md_dmTR_ex_a004", "md_file": "knowledge_base/domains/TR/examples.md", "md_atom_type": "SENTENCE", "md_parent_section": "§TR.1 [Example 2 (continued from TU)]", "md_verbatim": "TR shows measurements (i.e., short axis) of lymph nodes as well as measurements of other non-lymph node target tumors (i.e., longest diameter).", "score": 0.5087, "match_basis": "verbatim_token+global_search"}, {"md_atom_id": "md_dmTR_ex_a007", "md_file": "knowledge_base/domains/TR/examples.md", "md_atom_type": "SENTENCE", "md_parent_section": "§TR.1 [Example 2 (continued from TU)]", "md_verbatim": "A lymph node state of \"NON-PATHOLOGICAL\" means that all target lymph node lesions have a short axis less than 10mm.", "score": 0.4957, "match_basis": "verbatim_token+global_search"}, {"md_atom_id": "md_dmTR_ex_a006", "md_file": "knowledge_base/domains/TR/examples.md", "md_atom_type": "SENTENCE", "md_parent_section": "§TR.1 [Example 2 (continued from TU)]", "md_verbatim": "The overall assessment of lymph nodes is represented with TRTEST = \"Lymph Nodes State\".", "score": 0.4609, "match_basis": "verbatim_token+global_search"}], "candidate_count": 5, "zero_candidate": false}
{"pdf_atom_id": "ig34_p0354_a033", "pdf_atom_type": "SENTENCE", "pdf_source": "SDTMIG_v3.4", "pdf_page": 354, "pdf_parent_section": "§6.3.12.3 Tumor Identification/Tumor Results Examples", "pdf_verbatim": "Rows 1-8:\tShow the measurements of the target tumors and other assessments of the target and non-target tumors at the screening visit.", "figure_ref": null, "candidates": [{"md_atom_id": "md_dmTR_ex_a009", "md_file": "knowledge_base/domains/TR/examples.md", "md_atom_type": "NOTE", "md_parent_section": "§TR.1 [Example 2 (continued from TU)]", "md_verbatim": "**Rows 1-8:** Show the measurements of the target tumors and other assessments of the target and non-target tumors at the screening visit.", "score": 0.81, "match_basis": "verbatim_token+global_search"}, {"md_atom_id": "md_dmTR_ex_a010", "md_file": "knowledge_base/domains/TR/examples.md", "md_atom_type": "NOTE", "md_parent_section": "§TR.1 [Example 2 (continued from TU)]", "md_verbatim": "**Rows 9-21:** Show the measurements of the target tumors and other assessments of the target and non-target tumors at the week 6 visit.", "score": 0.69, "match_basis": "verbatim_token+global_search"}, {"md_atom_id": "md_dmTR_ex_a011", "md_file": "knowledge_base/domains/TR/examples.md", "md_atom_type": "NOTE", "md_parent_section": "§TR.1 [Example 2 (continued from TU)]", "md_verbatim": "**Rows 22-27:** Show the measurements of the target tumors and other assessments of the target and non-target tumors at the week 12 visit.", "score": 0.69, "match_basis": "verbatim_token+global_search"}, {"md_atom_id": "md_dmTR_ex_a050", "md_file": "knowledge_base/domains/TR/examples.md", "md_atom_type": "NOTE", "md_parent_section": "§TR.2 [Example 3 (continued from TU)]", "md_verbatim": "**Rows 1-7:** Show the measurements of the target tumors and other assessments of the target and non-target tumors at the screening visit by the independent assessor, Radiologist 1.", "score": 0.633, "match_basis": "verbatim_token+global_search"}, {"md_atom_id": "md_dmTU_ex_a052", "md_file": "knowledge_base/domains/TU/examples.md", "md_atom_type": "SENTENCE", "md_parent_section": "§TU.3 [Example 3]", "md_verbatim": "TU shows the target and non-target tumors identified by a radiologist at a screening visit.", "score": 0.5542, "match_basis": "verbatim_token+global_search"}], "candidate_count": 5, "zero_candidate": false}
{"pdf_atom_id": "ig34_p0354_a034", "pdf_atom_type": "SENTENCE", "pdf_source": "SDTMIG_v3.4", "pdf_page": 354, "pdf_parent_section": "§6.3.12.3 Tumor Identification/Tumor Results Examples", "pdf_verbatim": "Rows 9-21:\tShow the measurements of the target tumors and other assessments of the target and non-target tumors at the week 6 visit.", "figure_ref": null, "candidates": [{"md_atom_id": "md_dmTR_ex_a010", "md_file": "knowledge_base/domains/TR/examples.md", "md_atom_type": "NOTE", "md_parent_section": "§TR.1 [Example 2 (continued from TU)]", "md_verbatim": "**Rows 9-21:** Show the measurements of the target tumors and other assessments of the target and non-target tumors at the week 6 visit.", "score": 0.81, "match_basis": "verbatim_token+global_search"}, {"md_atom_id": "md_dmTR_ex_a011", "md_file": "knowledge_base/domains/TR/examples.md", "md_atom_type": "NOTE", "md_parent_section": "§TR.1 [Example 2 (continued from TU)]", "md_verbatim": "**Rows 22-27:** Show the measurements of the target tumors and other assessments of the target and non-target tumors at the week 12 visit.", "score": 0.81, "match_basis": "verbatim_token+global_search"}, {"md_atom_id": "md_dmTR_ex_a009", "md_file": "knowledge_base/domains/TR/examples.md", "md_atom_type": "NOTE", "md_parent_section": "§TR.1 [Example 2 (continued from TU)]", "md_verbatim": "**Rows 1-8:** Show the measurements of the target tumors and other assessments of the target and non-target tumors at the screening visit.", "score": 0.69, "match_basis": "verbatim_token+global_search"}, {"md_atom_id": "md_dmTR_ex_a051", "md_file": "knowledge_base/domains/TR/examples.md", "md_atom_type": "NOTE", "md_parent_section": "§TR.2 [Example 3 (continued from TU)]", "md_verbatim": "**Rows 8-19:** Show the measurements of the target tumors and other assessments of the target and non-target tumors at the week 6 visit by the independent assessor, Radiologist 1.", "score": 0.6171, "match_basis": "verbatim_token+global_search"}, {"md_atom_id": "md_dmTR_ex_a052", "md_file": "knowledge_base/domains/TR/examples.md", "md_atom_type": "NOTE", "md_parent_section": "§TR.2 [Example 3 (continued from TU)]", "md_verbatim": "**Rows 20-32:** Show the measurements of the target tumors and other assessments of the target and non-target tumors at the week 12 visit by the independent assessor, Radiologist 1.", "score": 0.6171, "match_basis": "verbatim_token+global_search"}], "candidate_count": 5, "zero_candidate": false}
{"pdf_atom_id": "ig34_p0354_a035", "pdf_atom_type": "SENTENCE", "pdf_source": "SDTMIG_v3.4", "pdf_page": 354, "pdf_parent_section": "§6.3.12.3 Tumor Identification/Tumor Results Examples", "pdf_verbatim": "Rows 22-27:\tShow the measurements of the target tumors and other assessments of the target and non-target tumors at the week 12 visit.", "figure_ref": null, "candidates": [{"md_atom_id": "md_dmTR_ex_a010", "md_file": "knowledge_base/domains/TR/examples.md", "md_atom_type": "NOTE", "md_parent_section": "§TR.1 [Example 2 (continued from TU)]", "md_verbatim": "**Rows 9-21:** Show the measurements of the target tumors and other assessments of the target and non-target tumors at the week 6 visit.", "score": 0.81, "match_basis": "verbatim_token+global_search"}, {"md_atom_id": "md_dmTR_ex_a011", "md_file": "knowledge_base/domains/TR/examples.md", "md_atom_type": "NOTE", "md_parent_section": "§TR.1 [Example 2 (continued from TU)]", "md_verbatim": "**Rows 22-27:** Show the measurements of the target tumors and other assessments of the target and non-target tumors at the week 12 visit.", "score": 0.81, "match_basis": "verbatim_token+global_search"}, {"md_atom_id": "md_dmTR_ex_a009", "md_file": "knowledge_base/domains/TR/examples.md", "md_atom_type": "NOTE", "md_parent_section": "§TR.1 [Example 2 (continued from TU)]", "md_verbatim": "**Rows 1-8:** Show the measurements of the target tumors and other assessments of the target and non-target tumors at the screening visit.", "score": 0.69, "match_basis": "verbatim_token+global_search"}, {"md_atom_id": "md_dmTR_ex_a051", "md_file": "knowledge_base/domains/TR/examples.md", "md_atom_type": "NOTE", "md_parent_section": "§TR.2 [Example 3 (continued from TU)]", "md_verbatim": "**Rows 8-19:** Show the measurements of the target tumors and other assessments of the target and non-target tumors at the week 6 visit by the independent assessor, Radiologist 1.", "score": 0.6171, "match_basis": "verbatim_token+global_search"}, {"md_atom_id": "md_dmTR_ex_a052", "md_file": "knowledge_base/domains/TR/examples.md", "md_atom_type": "NOTE", "md_parent_section": "§TR.2 [Example 3 (continued from TU)]", "md_verbatim": "**Rows 20-32:** Show the measurements of the target tumors and other assessments of the target and non-target tumors at the week 12 visit by the independent assessor, Radiologist 1.", "score": 0.6171, "match_basis": "verbatim_token+global_search"}], "candidate_count": 5, "zero_candidate": false}
{"pdf_atom_id": "ig34_p0355_a001", "pdf_atom_type": "CODE_LITERAL", "pdf_source": "SDTMIG_v3.4", "pdf_page": 355, "pdf_parent_section": "§6.3.12.3 Tumor Identification/Tumor Results Examples", "pdf_verbatim": "tr.xpt", "figure_ref": null, "candidates": [{"md_atom_id": "md_ch04_a207", "md_file": "knowledge_base/chapters/ch04_general_assumptions.md", "md_atom_type": "CODE_LITERAL", "md_parent_section": "§4.2.3 [Use of \"Subject\" and USUBJID]", "md_verbatim": "dm.xpt:", "score": 0.69, "match_basis": "verbatim_token+global_search"}, {"md_atom_id": "md_ch04_a210", "md_file": "knowledge_base/chapters/ch04_general_assumptions.md", "md_atom_type": "CODE_LITERAL", "md_parent_section": "§4.2.3 [Use of \"Subject\" and USUBJID]", "md_verbatim": "dm.xpt:", "score": 0.69, "match_basis": "verbatim_token+global_search"}, {"md_atom_id": "md_dmCM_ex_a010", "md_file": "knowledge_base/domains/CM/examples.md", "md_atom_type": "NOTE", "md_parent_section": "§CM.1 [Example 1]", "md_verbatim": "**cm.xpt**", "score": 0.69, "match_basis": "verbatim_token+global_search"}, {"md_atom_id": "md_dmCM_ex_a025", "md_file": "knowledge_base/domains/CM/examples.md", "md_atom_type": "NOTE", "md_parent_section": "§CM.2 [Example 2]", "md_verbatim": "**cm.xpt**", "score": 0.69, "match_basis": "verbatim_token+global_search"}, {"md_atom_id": "md_dmCM_ex_a042", "md_file": "knowledge_base/domains/CM/examples.md", "md_atom_type": "NOTE", "md_parent_section": "§CM.3 [Example 3]", "md_verbatim": "**cm.xpt**", "score": 0.69, "match_basis": "verbatim_token+global_search"}, {"md_atom_id": "md_dmCM_ex_a052", "md_file": "knowledge_base/domains/CM/examples.md", "md_atom_type": "NOTE", "md_parent_section": "§CM.4 [Example 4]", "md_verbatim": "**cm.xpt**", "score": 0.69, "match_basis": "verbatim_token+global_search"}, {"md_atom_id": "md_dmCM_ex_a070", "md_file": "knowledge_base/domains/CM/examples.md", "md_atom_type": "NOTE", "md_parent_section": "§CM.5 [Example 5]", "md_verbatim": "**cm.xpt**", "score": 0.69, "match_basis": "verbatim_token+global_search"}, {"md_atom_id": "md_ch04_a368", "md_file": "knowledge_base/chapters/ch04_general_assumptions.md", "md_atom_type": "CODE_LITERAL", "md_parent_section": "§4.2.8.3 [Multiple Values for a Non-result Qualifier Variable]", "md_verbatim": "ae.xpt:", "score": 0.69, "match_basis": "verbatim_token+global_search"}, {"md_atom_id": "md_ch04_a378", "md_file": "knowledge_base/chapters/ch04_general_assumptions.md", "md_atom_type": "CODE_LITERAL", "md_parent_section": "§4.2.8.3 [Multiple Values for a Non-result Qualifier Variable]", "md_verbatim": "ae.xpt:", "score": 0.69, "match_basis": "verbatim_token+global_search"}, {"md_atom_id": "md_ch04_a391", "md_file": "knowledge_base/chapters/ch04_general_assumptions.md", "md_atom_type": "CODE_LITERAL", "md_parent_section": "§4.2.8.3 [Multiple Values for a Non-result Qualifier Variable]", "md_verbatim": "ae.xpt:", "score": 0.69, "match_basis": "verbatim_token+global_search"}], "candidate_count": 10, "zero_candidate": false}
{"pdf_atom_id": "ig34_p0355_a002", "pdf_atom_type": "TABLE_HEADER", "pdf_source": "SDTMIG_v3.4", "pdf_page": 355, "pdf_parent_section": "§6.3.12.3 Tumor Identification/Tumor Results Examples", "pdf_verbatim": "| Row | STUDYID | DOMAIN | USUBJID | TRSEQ | TRGRPID | TRLNKGRP | TRLNKID | TRTESTCD | TRTEST | TRORRES | TRORRESU | TRSTRESC | TRSTRESN | TRSTRESU | TRSTAT | TRREASND | TRMETHOD | TREVAL | VISITNUM | VISIT | TRDTC | TRDY |", "figure_ref": null, "candidates": [{"md_atom_id": "md_dmTR_ex_a013", "md_file": "knowledge_base/domains/TR/examples.md", "md_atom_type": "TABLE_HEADER", "md_parent_section": "§TR.1 [Example 2 (continued from TU)]", "md_verbatim": "| Row | STUDYID | DOMAIN | USUBJID | TRSEQ | TRGRPID | TRLNKGRP | TRLNKID | TRTESTCD | TRTEST | TRORRES | TRORRESU | TRSTRESC | TRSTRESN | TRSTRESU | TRSTAT | TREASND | TRMETHOD | TREVAL | VISITNUM | VISIT | TRDTC | TRDY |", "score": 0.8918, "match_basis": "verbatim_token+global_search"}, {"md_atom_id": "md_dmTR_ex_a054", "md_file": "knowledge_base/domains/TR/examples.md", "md_atom_type": "TABLE_HEADER", "md_parent_section": "§TR.2 [Example 3 (continued from TU)]", "md_verbatim": "| Row | STUDYID | DOMAIN | USUBJID | TRSEQ | TRGRPID | TRLNKGRP | TRLNKID | TRTESTCD | TRTEST | TRORRES | TRORRESU | TRSTRESC | TRSTRESN | TRSTRESU | TRMETHOD | TRNAM | TREVAL | TREVALID | VISITNUM | VISIT | TRDTC | TRDY |", "score": 0.8077, "match_basis": "verbatim_token+global_search"}, {"md_atom_id": "md_dmUR_ex_a020", "md_file": "knowledge_base/domains/UR/examples.md", "md_atom_type": "TABLE_HEADER", "md_parent_section": "§UR.2 [Example 2]", "md_verbatim": "| Row | STUDYID | DOMAIN | USUBJID | URSEQ | URTESTCD | URTEST | URORRES | URORRESU | URSTRESC | URSTRESN | URSTRESU | URLOC | URLAT | URMETHOD | VISITNUM | VISIT | URDTC |", "score": 0.6253, "match_basis": "verbatim_token+global_search"}, {"md_atom_id": "md_dmMK_ex_a048", "md_file": "knowledge_base/domains/MK/examples.md", "md_atom_type": "TABLE_HEADER", "md_parent_section": "§MK.2 [Example 2]", "md_verbatim": "| Row | STUDYID | DOMAIN | USUBJID | MKSEQ | MKTESTCD | MKTEST | MKORRES | MKSTRESC | MKSTRESN | MKSTAT | MKREASND | MKLOC | MKLAT | MKMETHOD | MKEVAL | MKEVALID | VISITNUM | VISIT | MKDTC |\n|-----|---------|--------|---------|-------|----------|--------|---------|----------|----------|--------|----------|-------|-------|----------|--------|----------|----------|-------|-------|", "score": 0.5905, "match_basis": "verbatim_token+global_search"}, {"md_atom_id": "md_dmTU_ex_a033", "md_file": "knowledge_base/domains/TU/examples.md", "md_atom_type": "TABLE_HEADER", "md_parent_section": "§TU.2 [Example 2]", "md_verbatim": "| Row | STUDYID | DOMAIN | USUBJID | TUSEQ | TUGRPID | TULNKID | TUTESTCD | TUTEST | TUORRES | TUSTRESC | TULOC | TULAT | TUMETHOD | TUEVAL | VISITNUM | VISIT | TUDTC | TUDY |", "score": 0.5903, "match_basis": "verbatim_token+global_search"}], "candidate_count": 5, "zero_candidate": false}
{"pdf_atom_id": "ig34_p0355_a003", "pdf_atom_type": "TABLE_ROW", "pdf_source": "SDTMIG_v3.4", "pdf_page": 355, "pdf_parent_section": "§6.3.12.3 Tumor Identification/Tumor Results Examples", "pdf_verbatim": "| 1 | ABC | TR | 44444 | 1 | TARGET | A1 | T01 | DIAMETER | Diameter | 17 | mm | 17 | 17 | mm | | | CT SCAN | INVESTIGATOR | 10 | SCREEN | 2010-01-01 | -3 |", "figure_ref": null, "candidates": [{"md_atom_id": "md_dmTR_ex_a015", "md_file": "knowledge_base/domains/TR/examples.md", "md_atom_type": "TABLE_ROW", "md_parent_section": "§TR.1 [Example 2 (continued from TU)]", "md_verbatim": "| 1 | ABC | TR | 44444 | 1 | TARGET | A1 | T01 | DIAMETER | Diameter | 17 | mm | 17 | 17 | mm | | | CT SCAN | INVESTIGATOR | 10 | SCREEN | 2010-01-01 | -3 |", "score": 0.9, "match_basis": "verbatim_token+global_search"}, {"md_atom_id": "md_dmTR_ex_a016", "md_file": "knowledge_base/domains/TR/examples.md", "md_atom_type": "TABLE_ROW", "md_parent_section": "§TR.1 [Example 2 (continued from TU)]", "md_verbatim": "| 2 | ABC | TR | 44444 | 2 | TARGET | A1 | T02 | DIAMETER | Diameter | 16 | mm | 16 | 16 | mm | | | CT SCAN | INVESTIGATOR | 10 | SCREEN | 2010-01-01 | -3 |", "score": 0.8625, "match_basis": "verbatim_token+global_search"}, {"md_atom_id": "md_dmTR_ex_a017", "md_file": "knowledge_base/domains/TR/examples.md", "md_atom_type": "TABLE_ROW", "md_parent_section": "§TR.1 [Example 2 (continued from TU)]", "md_verbatim": "| 3 | ABC | TR | 44444 | 3 | TARGET | A1 | T03 | DIAMETER | Diameter | 15 | mm | 15 | 15 | mm | | | MRI | INVESTIGATOR | 10 | SCREEN | 2010-01-01 | -3 |", "score": 0.8091, "match_basis": "verbatim_token+global_search"}, {"md_atom_id": "md_dmTR_ex_a023", "md_file": "knowledge_base/domains/TR/examples.md", "md_atom_type": "TABLE_ROW", "md_parent_section": "§TR.1 [Example 2 (continued from TU)]", "md_verbatim": "| 9 | ABC | TR | 44444 | 9 | TARGET | A2 | T01 | DIAMETER | Diameter | 0 | mm | 0 | 0 | mm | | | CT SCAN | INVESTIGATOR | 40 | WEEK 6 | 2010-02-18 | 46 |", "score": 0.7909, "match_basis": "verbatim_token+global_search"}, {"md_atom_id": "md_dmTR_ex_a036", "md_file": "knowledge_base/domains/TR/examples.md", "md_atom_type": "TABLE_ROW", "md_parent_section": "§TR.1 [Example 2 (continued from TU)]", "md_verbatim": "| 22 | ABC | TR | 44444 | 22 | TARGET | A3 | T01 | DIAMETER | Diameter | 0 | mm | 0 | 0 | mm | | | CT SCAN | INVESTIGATOR | 60 | WEEK 12 | 2010-04-02 | 88 |", "score": 0.7909, "match_basis": "verbatim_token+global_search"}], "candidate_count": 5, "zero_candidate": false}
{"pdf_atom_id": "ig34_p0355_a004", "pdf_atom_type": "TABLE_ROW", "pdf_source": "SDTMIG_v3.4", "pdf_page": 355, "pdf_parent_section": "§6.3.12.3 Tumor Identification/Tumor Results Examples", "pdf_verbatim": "| 2 | ABC | TR | 44444 | 2 | TARGET | A1 | T02 | DIAMETER | Diameter | 16 | mm | 16 | 16 | mm | | | CT SCAN | INVESTIGATOR | 10 | SCREEN | 2010-01-01 | -3 |", "figure_ref": null, "candidates": [{"md_atom_id": "md_dmTR_ex_a016", "md_file": "knowledge_base/domains/TR/examples.md", "md_atom_type": "TABLE_ROW", "md_parent_section": "§TR.1 [Example 2 (continued from TU)]", "md_verbatim": "| 2 | ABC | TR | 44444 | 2 | TARGET | A1 | T02 | DIAMETER | Diameter | 16 | mm | 16 | 16 | mm | | | CT SCAN | INVESTIGATOR | 10 | SCREEN | 2010-01-01 | -3 |", "score": 0.9, "match_basis": "verbatim_token+global_search"}, {"md_atom_id": "md_dmTR_ex_a015", "md_file": "knowledge_base/domains/TR/examples.md", "md_atom_type": "TABLE_ROW", "md_parent_section": "§TR.1 [Example 2 (continued from TU)]", "md_verbatim": "| 1 | ABC | TR | 44444 | 1 | TARGET | A1 | T01 | DIAMETER | Diameter | 17 | mm | 17 | 17 | mm | | | CT SCAN | INVESTIGATOR | 10 | SCREEN | 2010-01-01 | -3 |", "score": 0.8625, "match_basis": "verbatim_token+global_search"}, {"md_atom_id": "md_dmTR_ex_a017", "md_file": "knowledge_base/domains/TR/examples.md", "md_atom_type": "TABLE_ROW", "md_parent_section": "§TR.1 [Example 2 (continued from TU)]", "md_verbatim": "| 3 | ABC | TR | 44444 | 3 | TARGET | A1 | T03 | DIAMETER | Diameter | 15 | mm | 15 | 15 | mm | | | MRI | INVESTIGATOR | 10 | SCREEN | 2010-01-01 | -3 |", "score": 0.8091, "match_basis": "verbatim_token+global_search"}, {"md_atom_id": "md_dmTR_ex_a037", "md_file": "knowledge_base/domains/TR/examples.md", "md_atom_type": "TABLE_ROW", "md_parent_section": "§TR.1 [Example 2 (continued from TU)]", "md_verbatim": "| 23 | ABC | TR | 44444 | 23 | TARGET | A3 | T02 | DIAMETER | Diameter | 6 | mm | 6 | 6 | mm | | | CT SCAN | INVESTIGATOR | 60 | WEEK 12 | 2010-04-02 | 88 |", "score": 0.7909, "match_basis": "verbatim_token+global_search"}, {"md_atom_id": "md_dmTR_ex_a019", "md_file": "knowledge_base/domains/TR/examples.md", "md_atom_type": "TABLE_ROW", "md_parent_section": "§TR.1 [Example 2 (continued from TU)]", "md_verbatim": "| 5 | ABC | TR | 44444 | 5 | TARGET | A1 | | SUMDIAM | Sum of Diameter | 62 | mm | 62 | 62 | mm | | | | INVESTIGATOR | 10 | SCREEN | | |", "score": 0.7588, "match_basis": "verbatim_token+global_search"}], "candidate_count": 5, "zero_candidate": false}
