{
  "schema_version": "1.0",
  "platform": "gemini_gems",
  "display_name": "Gemini Gems",
  "tier": "1-2",
  "v3_superseded": {
    "status": true,
    "superseded_date": "2026-04-22",
    "by": "smoke v4.0",
    "reason": "smoke v3 audit (by 11th subagent_type oh-my-claudecode:document-specialist, report at ai_platforms/archive/smoke_history/smoke_v3_audit_notes.md) surfaced NEED_FIX affecting Gemini-side Q1-Q10: Q10 (b) SUPPTS HIGH premise hallucination + Q8 LBNRIND/AETERM MEDIUM + Q4 FAIL MINOR PARTIAL rule too wide",
    "audit_evidence": "ai_platforms/archive/smoke_history/smoke_v3_audit_notes.md (404 lines, Rule D chain 11th slot burned)",
    "new_baseline": "ai_platforms/SMOKE_V4.md §2 (filename preserved for ref-compat; content now v4.0 bundled patch + AHP x3 = 13 questions for Gemini)",
    "historical_scores_frozen": true,
    "gemini_historical_strict_score_v3_1": "7/10 (70%, at threshold)",
    "rerun_planned": "smoke v4 R1 baseline cross-platform (Claude/ChatGPT/Gemini/NotebookLM), threshold 9/13 (70%)"
  },
  "created_at": "2026-04-20",
  "last_updated": "2026-05-16",
  "current_phase": "5_signed_off_post_v1_1_audit_closed",
  "overall_status": "Phase 5 SIGNED OFF 2026-04-24 (post 28th Rule D reviewer PASS + Daisy verbal ack) + v1.1 rebuild 2026-05-15 COMPLETE (incorporates 06 deep verification fixes; Rule D verifier ALL_PASS) + v1.1 audit pass 2026-05-16 CLOSED (system_prompt 63→64 + 23 meta inheritance + Tier B disclosed + gemini line 141 ARMNRS typo + 04 PC-PP RELREC §1.24b; Rule A N=20 PASS 100%). Lifecycle complete; v1.2 deferred items in release/v1.1/KNOWN_LIMITATIONS § 0.",
  "sync_locked_with": "chatgpt_gpt",
  "sync_board_path": "ai_platforms/SYNC_BOARD.md",
  "notes": "Phase 定义对齐 ROADMAP.md 六段制. Phase 2 双边 CONDITIONAL_PASS, 等用户 ack 进 Phase 3. Gemini Tier 1-2 最轻量平台.",
  "rule_e_user_priorities_ack": {
    "ack_date": "2026-04-20",
    "ack_method": "session_inline_Q1-Q5",
    "Q3_use_case": "C_both_precise_query_and_cross_domain_comparison",
    "Q4_terminology_inline": "A_high_frequency_injected",
    "Q5_domain_coverage": "A_full_equal_weight",
    "implications_for_plan": [
      "内容策略: core 513K + terminology 高频 ~200K → ~713K tokens, 1M 窗口 100% recall 至 530K / >99.7% at 1M",
      "A/B 兼顾精确查询 + 全域对比/跨域模式识别",
      "末尾召回 Phase 3 hard checkpoint: 2 道末尾 codelist 精确 term (Rule E Q4=A 兑现)",
      "63 域全量覆盖, 不减配低频",
      "位置策略: 导航头部, terminology 尾部 (recency bias 有利)",
      "Phase 5 保守默认私有; 可扩展到'分享链接给同事'(定向, 非广播)"
    ]
  },
  "phases": {
    "0_startup": {
      "status": "PASS",
      "evidence_paths": [
        "ai_platforms/gemini_gems/docs/platform_profile.md",
        "ai_platforms/gemini_gems/dev/evidence/phase0_reviewer.md"
      ],
      "reviewer_lane_pass": true,
      "reviewer_verdict": "CONDITIONAL_PASS",
      "user_ack": true,
      "user_ack_date": "2026-04-20",
      "completed_at": "2026-04-20"
    },
    "1_research": {
      "status": "PASS",
      "evidence_paths": [
        "ai_platforms/gemini_gems/docs/research.md",
        "ai_platforms/gemini_gems/dev/evidence/phase1_reviewer.md"
      ],
      "reviewer_lane_pass": true,
      "reviewer_verdict": "CONDITIONAL_PASS",
      "writer_attempts": 2,
      "writer_attempt_1_archived": "ai_platforms/gemini_gems/dev/evidence/failures/stage_phase1_attempt_1.md",
      "user_ack": true,
      "user_ack_date": "2026-04-20",
      "completed_at": "2026-04-20"
    },
    "2_plan": {
      "status": "PASS",
      "gate_criteria": [
        "docs/PLAN.md 含 P1-P12 规则",
        "Rule E Q3/Q4/Q5 乘入打分公式",
        "每 Task 明示 checkpoint 级别",
        "1 批上传计划 + A/B 10 题矩阵",
        "Phase 1 LOW carry-over (F-1 末尾召回) 标注 Phase 3 hard checkpoint",
        "公开语义正确 (Gemini=链接分享, 非 Store 广播)"
      ],
      "evidence_paths": [
        "ai_platforms/gemini_gems/docs/PLAN.md",
        "ai_platforms/gemini_gems/dev/evidence/phase2_reviewer.md"
      ],
      "writer_subagent": "oh-my-claudecode:executor (opus)",
      "writer_summary": "578 行, P1-P12 完整, 18 Task (A=3/B=6/C=3/D=3/F=2/G=5, E merged to D), 12 hard checkpoints, Rule E Q3/Q4/Q5 乘入, F-1 三处一致 (§1.3 P12 + §4 D2 T-tail-1/2 + §8 R1)",
      "reviewer_lane_pass": true,
      "reviewer_subagent": "oh-my-claudecode:verifier",
      "reviewer_verdict": "CONDITIONAL_PASS",
      "reviewer_carry_over_to_phase3": [
        "LOW: B2/B3 hard checkpoint 定义与执行预期轻微歧义 (Tier 1-2 该级别条件触发可软) — Phase 3 启动前主 session 口头澄清 'token 偏差 >15% → trace + reviewer + 主控 ack', 无需改 PLAN",
        "LOW: §7 '10 题' 计数与矩阵 12 条目组成关系未内嵌说明 — Phase 3 前确认执行者理解 T1-T4 + T5-T8 + T-tail-1/2 + T9 = 10 必答, T10 可选"
      ],
      "user_ack": false,
      "user_ack_date": null,
      "started_at": "2026-04-20",
      "completed_at": "2026-04-20"
    },
    "3_execute": {
      "status": "PASS",
      "phase_3_closure_commit": "de97845",
      "phase_3_closure_date": "2026-04-21",
      "phase_3_final_smoke_v2_score": "8/10 strict (N4_smoke_v2, 宽 8.5/10)",
      "phase_3_reviewer_confirm": "oh-my-claudecode:test-engineer 第 15 种 subagent_type ADJUST 82% + Phase 4 gate CONFIRM",
      "node_plan_aligned_with_sync_board": "SYNC_BOARD 尾段; 实际执行 N1 脚本 → N2 跑脚本 → N3a docs → N3b smoke → N4 C refactor writer+reviewer → N4 smoke v2 (原 N5/N6 合 smoke v2 收束, Phase 4 重跑 full A/B)",
      "gate_criteria": [
        "合并脚本产出 3-5 主题文件 (~713K tokens)",
        "单批 Gem 上传完成",
        "1 份终态 A/B 报告",
        "失败归档规则 B 执行",
        "末尾召回 T-tail-1/T-tail-2 2 题 PASS (Phase 2 hard checkpoint D2)",
        "Phase 2 LOW carry-over 启动前口头澄清 2 条"
      ],
      "evidence_paths": [],
      "reviewer_lane_pass": true,
      "user_ack": true,
      "user_ack_date": "2026-04-21",
      "started_at": "2026-04-20",
      "completed_at": "2026-04-21",
      "batches": [],
      "carry_over_from_phase1": [
        "F-1 末尾召回实测 (carry hard checkpoint D2, Node 5)"
      ],
      "carry_over_from_phase2": [
        "LOW: B2/B3 hard checkpoint 触发条件口头澄清 (Node 2 跑脚本时主 session 对执行者澄清)",
        "LOW: §7 10 题组成关系口头澄清 (Node 5 A/B 跑题前澄清)"
      ],
      "nodes": {
        "N1_scripts_dev": {
          "status": "PASS_bundled_ready_for_commit_C1",
          "final_status_note": "Gemini 侧 Node 1 经 verifier Rule D 审 CONDITIONAL_PASS, 脚本 py_compile 纯净, 无 rework. HIGH-1 是 Node 2 B6 runtime gate (04 尾部 V6 段数), 非 Node 1 脚本 bug. 与 ChatGPT 侧 C+Q 流程锁步同步完成, 等 C1 bundled commit.",
          "started_at": "2026-04-20",
          "completed_at": "2026-04-20",
          "dispatched_subagents": [
            "gemini_scripts_exec (executor opus) — 3 脚本: count_tokens 86 行 / merge_for_gemini 493 行 / validate_gemini 374 行, py_compile PASS, 总 953 行",
            "gemini_scripts_review (verifier opus, Rule D 独立, 与 ChatGPT code-reviewer 不同 subagent_type) — Verdict CONDITIONAL_PASS"
          ],
          "reviewer_verdict": "CONDITIONAL_PASS",
          "reviewer_evidence": "ai_platforms/gemini_gems/dev/evidence/phase3_node1_reviewer.md (286 行, verifier subagent 自写)",
          "reviewer_pass_summary": [
            "M1 PLAN 合规: 4 合并文件 / CLI 6 stages / V1-V6 / P1 量化 / Rule E Q3/Q4/Q5 乘入全 PASS",
            "M3 规则合规: P5 严格 (只 read_text/rglob/iterdir); P6 脚本自足; 规则 A 04 高频筛选已 docstring 注释 (Node 2 必 N=5 抽检); 规则 D 独立复核",
            "M4 mental trace 大部分 PASS (rc 正确传播 / manifest idempotent / V3 rc 三档合 PLAN §8 R2 / V6 character offset 锚点合理)"
          ],
          "reviewer_must_fix_before_node2_or_gate_at_node2": [
            "HIGH-1 (Node 2 gate, 不 Node 1 block): 实测 terminology/core 3.4MB ≫ 200K target → _collect_terminology_sources 必进 core>target 分支, 可能仅 selected 2-3 个 source (lb_part3 417KB + lb_part2 377KB), 04 末 30% 字符区间 <3 个 terminology source marker → V6 FAIL 风险. Node 2 B6 跑 validate 后若 FAIL, 三选项: (A) 降 V6 min 到 1 放松 (削弱 P12 hard checkpoint, 需用户 ack) / (B) 允许 ≤220K 引入更多小文件 / (C) 推荐: 混合 core 大文件 + 高频小文件. 必须 Node 2 实测后决定, 非 Node 1 语法错."
          ],
          "reviewer_medium_suggested": [
            "MEDIUM-1: _file_header() 行 293 含 Generated timestamp → 同输入跨时间跑 md5 不同, V5 md5 稳定承诺弱. 业务 V5 只 record 不判 FAIL, 非阻塞, 可选修 (timestamp 移到 manifest header)"
          ],
          "reviewer_low_carry_over": [
            "LOW-1: _collect_terminology_sources core<=target 分支尾部策略 bug (本场景不触)",
            "LOW-2: _collect_knowledge_sources / _collect_spec_sources 静默跳过缺失域 — 建议 _log(skip missing)",
            "LOW-3: validate rc!=0 时终端不提示归档路径 (Rule B UX)",
            "LOW-4: manifest 多块时 (分步跑) 手册化 '只认最新块'",
            "LOW-5: 04 产物建议加 'terminology selection summary' 1 行便于 Rule A N=5 抽检"
          ],
          "reviewer_deviations_accepted": [
            "#1 manifest 一次性追加 (executor 单次 main 累积 entries + 时间戳 header 块): 幂等性 + 避半成品污染",
            "#2 04 reverse size-proxy (core>target 分支 size-desc + reverse → 最大高频代理落尾) 合 Q4=A + P12",
            "#3 V2 terminology 不判 FAIL: 完全合 PLAN 'Node 2 校准'",
            "#4 不执行: Node 1 硬约束",
            "#5 (新增): header 时间戳 → md5 不稳定 — 业务 V5 不判 FAIL, LOW"
          ]
        },
        "N2_scripts_run": {
          "status": "PASS",
          "started_at": "2026-04-20",
          "completed_at": "2026-04-20",
          "user_ack": true,
          "user_ack_date": "2026-04-20",
          "attempts": [
            "attempt_1 HARD FAIL: V6 tail 30% 内 0 段 terminology source (需 ≥3), 04 只 1 段 (lb_part3 独占). failure 归档 dev/evidence/failures/stage_phase3_attempt_1.md",
            "attempt_2 PASS: v1.3d 混合策略 fix 后, V6 PASS 3/3 (onc@795K + intv@884K + qs@974K 全 ≥ tail_start 777,919), 总 tokens 884,918 < 900K WARN 阈, 15K 余量"
          ],
          "fix_lane_v1_3_to_v1_3d_4rounds": {
            "decision": "Q2=C (混合策略 top-2 大文件保尾 + prepend 高频小文件), 用户 ack 2026-04-20; Q3=接受 03 +22.36% WARN",
            "round_1_v1_3": "executor opus 加 HIGH_FREQ_CORE_HINTS + big_tail + small_head, 写入顺序 [small_head, reversed(big_tail)] (缺陷: lb_part3 marker 694K 仍 < tail_start 778K)",
            "round_2_v1_3b": "主 session 物理坐标推演捕获 → 反转循环 [reversed(big_tail), small_head] (缺陷: remaining 按 -bytes 降序, is_domain_part2 独吞 80K budget)",
            "round_3_v1_3c_pr_review": "pr-review-toolkit:code-reviewer 精确模拟捕获 → remaining 改 bytes 升序 sorted (缺陷: 80K budget 对精确 tiktoken 83,945 不足, qs 仍 skip)",
            "round_4_v1_3d_feature_dev": "feature-dev:code-reviewer 精确 tiktoken 捕获 → budget 80K→90K (PASS: onc+intv+qs=83,945 ≤ 90K 全中, selected 5 段)",
            "final_critic_v1_3d": "oh-my-claudecode:critic (第 7 视角) PASS 95/100, 独立物理 offset 模拟 V6 tail_count=3/3 收敛; MEDIUM-1 建议 Node 3 budget 90K→100K (headroom 6.73%→16.06%)"
          },
          "reviewer_subagents_rule_d_independent_7_types": [
            "oh-my-claudecode:executor (writer × 6 轮: N1 original + N1 fix + N2 attempt 1 + v1.3 fix + v1.3b fix + v1.3c fix + v1.3d fix + N2 attempt 2)",
            "oh-my-claudecode:code-reviewer (Node 1 round 1 ChatGPT)",
            "oh-my-claudecode:verifier (Node 1 round 1 Gemini + Node 2 AB Gemini round 2)",
            "oh-my-claudecode:debugger (Node 1 delta ChatGPT)",
            "pr-review-toolkit:code-reviewer (Node 2 fix v1.3b review + Node 2 AB ChatGPT round 2)",
            "feature-dev:code-reviewer (Node 2 fix v1.3c delta review)",
            "oh-my-claudecode:critic (Node 2 fix v1.3d final critic)"
          ],
          "ab_reviewer_attempt_2": "oh-my-claudecode:verifier → PASS 17/17 acceptance criteria VERIFIED, 0 blockers, 1 LOW-1 描述笔误非阻塞",
          "rule_a_n5_audit": {
            "trigger": "04 压缩率 ~65% (按 tokens) / ~88% (按文件数), 均 >50% 强制",
            "samples": "5/5 PASS (lb_part2 + lb_part3 + oncology_part1 + interventions + qs_part1 起止对齐 KB 源 100%)",
            "evidence": "ai_platforms/gemini_gems/dev/evidence/step_node2_audit.md",
            "performed_by": "main session (非 subagent, 独立抽检)"
          },
          "evidence_paths": [
            "ai_platforms/gemini_gems/dev/evidence/merge_all.log",
            "ai_platforms/gemini_gems/dev/evidence/validate_all.log",
            "ai_platforms/gemini_gems/dev/evidence/validate_single_batch.md",
            "ai_platforms/gemini_gems/dev/evidence/merge_all_attempt2.log",
            "ai_platforms/gemini_gems/dev/evidence/validate_all_attempt2.log",
            "ai_platforms/gemini_gems/dev/evidence/failures/stage_phase3_attempt_1.md",
            "ai_platforms/gemini_gems/dev/evidence/phase3_node2_fix_reviewer.md",
            "ai_platforms/gemini_gems/dev/evidence/phase3_node2_fix_delta_reviewer.md",
            "ai_platforms/gemini_gems/dev/evidence/phase3_node2_fix_final_critic.md",
            "ai_platforms/gemini_gems/dev/evidence/phase3_node2_attempt2_ab_reviewer.md",
            "ai_platforms/gemini_gems/dev/evidence/step_node2_audit.md",
            "ai_platforms/gemini_gems/dev/ab_reports/STAGE_PHASE3_AB_REPORT.md",
            "ai_platforms/gemini_gems/current/uploads/01_core_reference.md",
            "ai_platforms/gemini_gems/current/uploads/02_domain_specs.md",
            "ai_platforms/gemini_gems/current/uploads/03_domain_knowledge.md",
            "ai_platforms/gemini_gems/current/uploads/04_terminology_core.md",
            "ai_platforms/gemini_gems/current/upload_manifest.md"
          ],
          "product_stats": {
            "01_core_reference.md": {
              "tokens": 124512,
              "target": 120000,
              "deviation_pct": 3.76,
              "sources": 15
            },
            "02_domain_specs.md": {
              "tokens": 185785,
              "target": 168000,
              "deviation_pct": 10.59,
              "sources": 63
            },
            "03_domain_knowledge.md": {
              "tokens": 275318,
              "target": 225000,
              "deviation_pct": 22.36,
              "sources": 126,
              "warn": "Node 3 转办, 用户 Q3=接受"
            },
            "04_terminology_core.md": {
              "tokens": 299303,
              "target": 200000,
              "deviation_pct": 49.65,
              "sources": 5,
              "warn": "Node 3 转办 (新)",
              "v6_tail_markers": 3,
              "tail_start": 777919
            }
          },
          "total_tokens_v3_margin": {
            "total": 884918,
            "warn_threshold": 900000,
            "hard_fail_threshold": 1000000,
            "margin_to_warn": 15082,
            "status": "PASS (< WARN 阈)"
          },
          "low_carry_over_to_node3": [
            "MEDIUM-M1 (critic): budget 90K→100K (headroom 6.73%→16.06%, 不改变 selected 集合)",
            "LOW-L1 (critic): v1.3c inline 注释 L352-355 marker 顺序 stale (intv/onc → 实际 onc/intv), 非功能错",
            "LOW-L2 (critic): Rule A N=5 ChatGPT 侧未做 — ChatGPT 压缩率 <50% 非强制; Gemini 已完成 (见 step_node2_audit.md)",
            "LOW-WARN (AB): 03 +22.36% carry-over (用户 Q3=接受), 04 +49.65% 新 WARN (3 选项: 接受/裁/拆)",
            "LOW-AUDIT-A1 (audit): general_part1 / is_domain_part2 未入 selected, 泛域召回风险, Node 3 A/B 后决策是否扩 budget 到 160K",
            "LOW-1 (AB reviewer): validate_single_batch.md V3 判定行 '884,918 ≤ target' 描述笔误 (884K > 800K target, PASS 因 < 900K WARN 阈, rc=0 正确)"
          ]
        },
        "N3a_docs": {
          "status": "CONDITIONAL_PASS",
          "started_at": "2026-04-20",
          "completed_at": "2026-04-20",
          "user_ack_mode": "ack_deferred_to_node_3b_smoke_checkpoint",
          "dispatched_subagents": [
            "gemini_node3_writer (executor opus) — 3 产物: system_prompt.md 130 行 5884 chars (budget 8000, 73.55% 占用) / upload_manifest.md 98 行 / smoke_questions_draft.md 160 行",
            "gemini_node3_reviewer (pr-review-toolkit:comment-analyzer opus, 规则 D 独立, 第 9 种 subagent_type) — Verdict CONDITIONAL_PASS (Confidence 92%), 0 HIGH + 2 MEDIUM + 5 LOW"
          ],
          "writer_products": [
            "ai_platforms/gemini_gems/current/system_prompt.md (Gem Instructions, ≤8000 chars budget, 5884 实测, Rule E Q3/Q4/Q5 乘入, 分享语义严守不含 Store 广播)",
            "ai_platforms/gemini_gems/current/upload_manifest.md (4 文件实测 + WARN 03/04 + V6 tail markers 独立段 M2 R2 已修)",
            "ai_platforms/gemini_gems/dev/evidence/smoke_questions_draft.md (5 题 S1-S5 映射 PLAN §7 T1/T2 改编/T-tail-1/T-tail-2/T9 + 坐标系口径说明 M1 R1 已修)"
          ],
          "reviewer_verdict": "CONDITIONAL_PASS",
          "reviewer_confidence": 92,
          "reviewer_evidence": "ai_platforms/gemini_gems/dev/evidence/phase3_node3_reviewer.md (comment-analyzer 自写 266 行)",
          "reviewer_lane_pass": true,
          "rule_e_verified": {
            "Q3_C_precision_and_cross_domain": "PASS (Instructions §路由规则 §1 精确 + §2 全域对比同等篇幅; smoke S1 + 留 T5-T8 到 Node 5)",
            "Q4_A_terminology_tail_injected": "PASS (§知识库组成 04 66-100% + position_fit 0.9 recency; §边界处理三档)",
            "Q5_A_equal_domain_weight": "PASS (manifest sources=63/126 全量无减配; §2 全域对比 4 小段不偏倚)"
          },
          "share_semantics_strict": "PASS (Grep 0 匹配 任何人/病人/广播/Store; manifest 发布决策引用 publish_scope_semantics_clarification_2026-04-20)",
          "p12_tail_recall_gate_design": "PASS (S3 line 6050 / offset 95.4% line-based / 87.7% char-based ≥ tail_start 70%; S4 line 2564 / 40.4% line-based / 34.0% char-based 落 40-60% middle 区; gate 独立性 smoke draft L134 明示)",
          "carry_over_main_session_resolved_in_session": [
            "LOW-1 笔误修 (validate_single_batch.md V3 PASS 行 884,918 exceeds target but below WARN 900K 3-tier band 逻辑)",
            "LOW-L2 (ChatGPT 侧对称 N=5 audit) — 主 session 写 chatgpt_gpt/dev/evidence/step_node2_audit.md (5/5 PASS)",
            "MEDIUM-M2 R2 (manifest V6 tail_start 独立段落声明)",
            "MEDIUM-M1 R1 (smoke draft offset 坐标系 line vs char vs token 三口径换算说明)"
          ],
          "low_carry_over_to_node3b_or_later": [
            "L1 (comment-analyzer): Instructions §知识库组成用 token-pct, 第 3 种坐标系, Node 5 A/B 前统一换算说明",
            "L2 (comment-analyzer): smoke S3 line 区间 6050-6068 vs 6056-6060 overlap 不明确",
            "L3 (comment-analyzer): Instructions 边界模板用 C66742, smoke S5 用 AERELN, 样例不一, Node 5 A/B 统一",
            "L4 (comment-analyzer): manifest 上传步骤 5 加 Gemini UI HTML 注释处理提示 (char_count marker 是 HTML 注释可能被剥离)",
            "L5 (comment-analyzer): Node 3b PASS 回报模板明示 smoke 5 ≠ PLAN §7 10, T5-T8 多针留 Node 5",
            "MEDIUM-M1 critic: merge_for_gemini.py budget 90K→100K (Node 4 前, 脚本改 + 重跑 validate)",
            "LOW-L1 critic: merge_for_gemini.py L352-355 注释 marker 顺序 stale (Node 4 前)",
            "LOW-WARN 03/04 偏离 + LOW-AUDIT-A1 泛域召回: Node 5 A/B 监测"
          ]
        },
        "N3b_smoke": {
          "status": "CONDITIONAL_PASS",
          "started_at": "2026-04-21",
          "completed_at": "2026-04-21",
          "user_ack_mode": "smoke_results_delivered_via_session",
          "executed_by": "chrome MCP DOM-based agent",
          "gem_url": "https://gemini.google.com/u/1/gem/3b572e310813/d053fd5f9418b93c",
          "gem_name": "SDTM Expert (Custom Gem)",
          "account": "bojiang.zhang.0904@gmail.com (Google AI Pro)",
          "smoke_score": "4/5 PASS (80%)",
          "smoke_exit_criteria": "≥ 4/5 PASS PASSED + S3 PASS + S4 PASS + S5 PASS → Node 4 解锁",
          "smoke_pass_fail_detail": {
            "S1_AESER_CT": "PASS (主判据 Y/N + C66742 + EVS link 齐, Core=Req 事实错但不降级整题)",
            "S2_C65047_row5": "FAIL (4/5 命中, row 5 SV = A1MICG 应为 A1MCREAT, Gemini 近邻 SV 混淆 L25/L26 邻行)",
            "S3_C100129_tail_P12_R1": "PASS 5/5 精确 (P12 R1 hard gate 绿, 尾部 87.7% char offset 100% recall)",
            "S4_C67154_middle_P12_R2": "PASS 3/3 精确 (P12 R2 hard gate 绿, 中段 34-40% char offset Lost-in-Middle 未发生)",
            "S5_AERELN_synonyms_zero_fab": "PASS (零 Synonym 编造; NCI code C117711 本地不可验疑幻觉, 但不破零编造硬门槛)"
          },
          "p12_tail_recall_carry_over_closed": "Phase 1 F-1 末尾召回 transfer_to_phase3 正向闭合: S3 尾部 + S4 中段 双 hard gate 全绿, 单批 884,918 tokens @ 88.49% 窗口占用 recency bias 未失效",
          "reviewer_subagent": "oh-my-claudecode:scientist (第 11 种独立 subagent_type, 规则 D)",
          "reviewer_verdict": "CONDITIONAL_PASS",
          "reviewer_confidence": 82,
          "reviewer_evidence": "ai_platforms/gemini_gems/dev/evidence/phase3_node3b_smoke_reviewer.md (主 session 代写, 因 scientist 无 Write 权)",
          "reviewer_lane_pass": true,
          "cross_platform_core_conflict_ruling_applied_here": {
            "variable": "AE.AESER",
            "gemini_answer": "Req (Required)",
            "chatgpt_answer": "Exp (Expected)",
            "authoritative_source_line": "knowledge_base/domains/AE/spec.md L254 → Core: Exp",
            "upload_02_domain_specs_line": "02_domain_specs.md L264 → Core: Exp (merge 无 bug)",
            "ruling": "Gemini LLM 邻变量污染幻觉. AESER 周围 6 变量 (STUDYID/DOMAIN/USUBJID/AESEQ/AETERM/AEDECOD) Core=Req 主导模式被 Gemini 错误泛化.",
            "node4_fix": "system_prompt.md 加 AESER 边界锚点示例 (不改 merge 脚本)"
          },
          "evidence_paths": [
            "ai_platforms/gemini_gems/dev/evidence/smoke_results.md",
            "ai_platforms/gemini_gems/dev/evidence/phase3_node3b_smoke_reviewer.md",
            "ai_platforms/gemini_gems/dev/checkpoints/CHECKPOINT_N3B_HANDOFF.md"
          ],
          "carry_over_to_node4_HIGH": [
            "CO-1 HIGH (reviewer): S1 AESER Core=Req 归因确定 = LLM 邻变量污染幻觉 (merge 无 bug, upload L264=Exp). Node 4 B1 system_prompt 加精准锚点: 'AE 域多数 Core=Req, 但 AESER (Serious Event) Core=Exp, 查询 Core 字段时必须逐变量精确引用, 不得由邻变量模式推断.' 重 smoke S1 验修正.",
            "CO-2 HIGH (reviewer): S5 NCI code C117711 本地 KB 不可溯源, 疑 LLM 幻觉. Node 4 B1 人工 NCI EVS 查 (https://evsexplore.semantics.cancer.gov/evsexplore/). 若无 → system_prompt guard: 'NCI Code 仅当 04_terminology_core.md 有记录时引用, 否则只给 EVS 搜索链接, 不自行生成代码.'"
          ],
          "carry_over_to_node4_MEDIUM": [
            "CO-3 MEDIUM (reviewer): 源路径 5 题全空反引号 `` 系统性缺陷. 根因 (a) Gemini 平台无 RAG 自动 citation + (b) system_prompt 无强制 citation 格式指令. Node 4 修 system_prompt 加 '源路径: <filename.md>, 段落: <section title>' 强制段 + 靶向 1 题重测验 citation 出.",
            "CO-4 MEDIUM (reviewer): S2 近邻 SV 交换 (L25 C100462/A1MCREAT vs L26 C100461/A1MICG). LLM 稠密表格精度内禀限制. Node 5 full A/B 加 10-row exact recall 测 C65047 量化近邻混淆率."
          ],
          "carry_over_to_node5": [
            "Node 5 多域 Core label spot-check 5+ 变量 × 3+ 域 评估 Req/Exp 混淆模式范围",
            "Node 5 A/B 10 题含末尾 T-tail-1/T-tail-2 + 中段验证, 延续 P12 hard gate 策略"
          ],
          "skip_node_4_option_rejected": "smoke_results.md L267 建议单批架构可跳 Node 4 直进 Node 5. Reviewer 不推荐此捷径 — 两项 HIGH CO-1+CO-2 阻, Node 4 system_prompt 改是对的路径."
        },
        "N3b_v1_smoke_question_design_flaw_caveat_2026-04-21": {
          "discovered_at": "2026-04-21 session 末用户纠正",
          "flaw_type": "位置探针 (最前面/中段/末尾) + 文件名引用 (04_terminology_core.md) + 字典式查询 (codelist 头 5 条) 3 错叠加",
          "affected_questions": "v1 5 题 3 错全触: S1 字典查 + S2/S3/S4 位置探针 + S5 零臆造 (唯一保留价值)",
          "user_correction": "真实 SDTM 用户问医疗业务问题, 不扣文件字眼也不当字典查; 专家用领域语言转述, codelist 是答案支撑不是问题本身",
          "objective_pass_status_unchanged": "v1 smoke 客观答题质量对判据 CONDITIONAL_PASS 82% 确实成立; 但用户视角下题目设计不合理, P12 hard gate 的'绿'可信度降级",
          "p12_hard_gate_downgrade": "S3/S4 P12 R1/R2 hard gate PASS 只证明'Gemini 按文件名+位置索引能查', 未证明'用户真实业务问法下末尾/中段 codelist 能命中'; 真正的 P12 gate 要在 Node 4 之后通过业务题隐式验",
          "revision_plan": "Node 4 用 ai_platforms/archive/smoke_history/SMOKE_QUESTIONS_V2.md 的 10 题业务维度题重跑 (禁 filename / 禁位置 / 禁字典查), 双平台完全一致以便对比",
          "strategic_pivot_2026-04-21": "用户 ack C 方案舍弃 terminology + 重整 4 文件为业务问答优化; Node 4 执行 gemini_gems/docs/PLAN_V2_C.md 重整 + smoke v2 10 题; P12 位置 gate 退回内部脚本自测, 不再出现在用户可见 smoke 题里"
        },
        "N4_c_refactor": {
          "status": "writer_CONDITIONAL_PASS_reviewer_CONDITIONAL_PASS_ready_for_commit_c4_then_user_delete_old_upload_new_and_smoke_v2",
          "started_at": "2026-04-21",
          "completed_at": "2026-04-21 (writer + reviewer; 用户删老 4 + 上新 4 + smoke v2 待做)",
          "dispatched_subagents": [
            "gemini_node4_writer (oh-my-claudecode:executor opus) — 6 交付: merge_for_gemini.py v1.3d→v2.0 (-161 行, c_refactor stage, 删 terminology 分支, _collect_spec_and_assumptions_sources 域内交错, _collect_examples_only_sources) / validate_gemini.py v1.0→v2.0 (+27 行, V8 新增 04 业务弹药合规检, V6 废除) / 04_business_scenarios_and_cross_domain.md 手写 (30,488 tokens, 26 场景 + 21 pitfall + 26 CT Code 索引 + 跨域规则 + FAQ 7 + 63 域速查) / system_prompt v2→v3 (5884→6720 chars, CO-1 AESER 锚 + CO-2 NCI EVS guard + CO-3 citation 强制 + 战略转向叙事) / upload_manifest v2 重写 / attempt_1 V8b FAIL (表格 false-positive 26 命中) → attempt_2 PASS (改列表格式绕过) rc=0",
            "gemini_node4_reviewer (oh-my-claudecode:architect opus read-only, 规则 D 独立, 第 13 种 subagent_type) — Verdict CONDITIONAL_PASS 88%, 0 HIGH + 2 MEDIUM (MED-1 04 扩容 + MED-2 V8 pattern 收紧) + 3 LOW + 10/10 SDTM 事实抽检 PASS + 3/3 CT Code 抽检 PASS"
          ],
          "writer_products": [
            "ai_platforms/gemini_gems/dev/scripts/merge_for_gemini.py (v2.0, -161 行)",
            "ai_platforms/gemini_gems/dev/scripts/validate_gemini.py (v2.0, +27 行)",
            "ai_platforms/gemini_gems/current/uploads/01_navigation_and_quick_reference.md (124,515 tokens / 15 sources)",
            "ai_platforms/gemini_gems/current/uploads/02_domains_spec_and_assumptions.md (240,453 tokens / 126 sources 63spec+63assum 域内交错)",
            "ai_platforms/gemini_gems/current/uploads/03_domains_examples.md (220,657 tokens / 63 sources)",
            "ai_platforms/gemini_gems/current/uploads/04_business_scenarios_and_cross_domain.md (30,488 tokens, 自编业务弹药包 26 场景)",
            "ai_platforms/gemini_gems/current/system_prompt.md (v3, 6720 chars / 8000 budget)",
            "ai_platforms/gemini_gems/current/upload_manifest.md (v2 重写)",
            "ai_platforms/gemini_gems/dev/evidence/node4_writer_summary.md",
            "ai_platforms/gemini_gems/dev/evidence/validate_single_batch.md (rc=0 4/4 PASS)",
            "ai_platforms/gemini_gems/dev/evidence/failures/stage_c_refactor_attempt_1.md (Rule B 五段式)",
            "ai_platforms/gemini_gems/dev/checkpoints/CHECKPOINT_N4_HANDOFF.md"
          ],
          "deleted_old_files": [
            "ai_platforms/gemini_gems/current/uploads/01_core_reference.md",
            "ai_platforms/gemini_gems/current/uploads/02_domain_specs.md",
            "ai_platforms/gemini_gems/current/uploads/03_domain_knowledge.md",
            "ai_platforms/gemini_gems/current/uploads/04_terminology_core.md"
          ],
          "reviewer_verdict": "CONDITIONAL_PASS",
          "reviewer_confidence": 88,
          "reviewer_evidence": "ai_platforms/gemini_gems/dev/evidence/phase3_node4_reviewer.md (主 session 代写, architect read-only)",
          "reviewer_lane_pass": true,
          "product_stats_c_refactor": {
            "01_navigation_and_quick_reference.md": {
              "tokens": 124515,
              "target": 150000,
              "sources": 15,
              "utilization_pct": 83.0
            },
            "02_domains_spec_and_assumptions.md": {
              "tokens": 240453,
              "target": 400000,
              "sources": 126,
              "utilization_pct": 60.1,
              "composition": "63 spec 后紧跟 63 assumptions 域内字母序交错"
            },
            "03_domains_examples.md": {
              "tokens": 220657,
              "target": 280000,
              "sources": 63,
              "utilization_pct": 78.8
            },
            "04_business_scenarios_and_cross_domain.md": {
              "tokens": 30488,
              "target": 60000,
              "sources": 0,
              "utilization_pct": 50.8,
              "note": "Reviewer 标 MEDIUM 扩容风险 (MED-1 smoke 前预防性扩 15-25K 建议)"
            }
          },
          "total_tokens_margin": {
            "total": 616113,
            "warn_threshold": 900000,
            "hard_fail_threshold": 1000000,
            "margin_to_warn": 283887,
            "margin_to_hard": 383887,
            "utilization_pct_1m": 61.6,
            "status": "PASS (<  WARN 阈, buffer 充裕 Reviewer 评过度保守建议挤 100K 到 04/01)"
          },
          "strategic_pivot_applied": "舍弃 terminology (由 NCI EVS Browser 承担); 04 换业务弹药包 ROI 比 299K terminology 高一个数量级",
          "attempts": [
            "attempt_1 FAIL: V8b pattern 在 04 §3.1 markdown 表格 26 行命中 false-positive (pattern 过宽). Rule B 归档.",
            "attempt_2 PASS: §3.1 改 markdown 列表格式 (`- `Cxxxxx` — \"codelist 名\"`) 绕过 pattern, V8b 0 命中 rc=0"
          ],
          "rule_e_verified": {
            "Q3_C_precision_and_cross_domain": "PASS (system_prompt §路由 + 04 §1-§8 覆盖精确与跨域)",
            "Q4_A_semantics_evolved_to_c_plan": "PASS (C 方案舍弃 terminology inline 换 NCI EVS 外链 + 业务场景弹药; system_prompt 战略转向叙事清晰)",
            "Q5_A_equal_domain_weight": "PASS (§8 63 域铺平)"
          },
          "co_1_2_3_landing_verified_by_reviewer": {
            "CO-1_aeser_anchor": "PASS — system_prompt 4 结构化锚点段 + 04 5 段硬锚点; AESER 出现 sysprompt 8 处 + 04 25 处 (结构化硬锚点 2+5=7 段深度覆盖)",
            "CO-2_nci_zero_fabrication": "PASS — system_prompt 4 段 + 04 6 段; evsexplore URL 出现 sysprompt 13 处; §6.2b C117711 防臆造范例具体到位",
            "CO-3_citation_format": "PASS — system_prompt 3 段强制 + 04 §1.1-§1.26 每场景带源路径 + §6 模板全带; 04 '源路径' 出现 42 次"
          },
          "sdtm_fact_audit_10_of_10_pass": {
            "AESER_core_exp": "PASS (04 L94 vs KB AE/spec.md L248-256)",
            "AE_serious_subvariables_perm": "PASS (04 L97-100 vs AE/spec.md L338-398)",
            "AESEV_core_perm": "PASS (04 L93 vs AE/spec.md L239-245)",
            "CM_req_set_5_vars": "PASS (04 §1.1 L50-56 vs CM/spec.md)",
            "LBNRIND_3_bucket_L_N_H": "PASS (04 L145-153 + C78736)",
            "AESEV_3_level_plus_CTCAE_5_AESDTH": "PASS (04 §1.4 vs AE/assumptions.md §7.a §7.d)",
            "MH_and_CM_dual_record": "PASS (04 §1.7 vs MH/assumptions.md + ch04)",
            "CT_C66742_mapping": "PASS (04 §3.1 L1158 vs general_part4.md L5)",
            "CT_C65047_mapping": "PASS (04 §3.1 L1166 vs lb_part2.md L5)",
            "CT_C66769_mapping": "PASS (04 §3.1 L1159 vs ae.md)"
          },
          "carry_over_node4_to_node5": [
            "CARRY-N5-1 MEDIUM (from Reviewer MED-1): 04 扩 15-25K tokens 到 50-60K target, 优先加 RECIST/影像/Oncology/Trial Design (TS/TI/TM)/IE/AG/PR. smoke 前预防性扩避免 2 轮 (Reviewer 推荐); 或 smoke 后看命中率再决定",
            "CARRY-N5-2 MEDIUM (from Reviewer MED-2): V8 pattern v2.1 收紧, 只 FAIL 真 Term Submission Value, 放 codelist 英文名; 同时 04 §3.1 可回归标准 markdown 表格",
            "CARRY-N5-3 LOW (from Reviewer LOW-1): writer 统计口径 'AESER 9 处' vs 独立 Grep 分布不透明, 未来统一 '硬锚点段' vs '散落提及' 两档",
            "CARRY-N5-4 LOW (from Reviewer LOW-2): 04 内部 §1.26 §2.1 §8 信息 redundancy ~10%, 去重释 3-4K tokens",
            "CARRY-N5-5 LOW (from Reviewer LOW-3): §1.15-§1.26 子域段加 'Core: 域内 Req 集/典型 Exp 集' 摘要",
            "CARRY-N5-6 INFO (from writer CARRY-N4-3): 02 实测 240K 比 PLAN 370K 低 130K, buffer 释放去向 Node 5 前决定"
          ],
          "user_action_awaiting": [
            "按 dev/checkpoints/CHECKPOINT_N4_HANDOFF.md Step 1.1 更新 Gem Custom Instructions (system_prompt v3)",
            "Step 1.2 删老 4 knowledge (01_core_reference/02_domain_specs/03_domain_knowledge/04_terminology_core)",
            "Step 1.2B 上新 4 knowledge 按顺序 (01_navigation_and_quick_reference → 02_domains_spec_and_assumptions → 03_domains_examples → 04_business_scenarios_and_cross_domain)",
            "Step 1.3 验证: 问 'AESER Core?' 期望答 Exp + 问 'knowledge 几个文件' 期望答 4",
            "Step 2 跑 ai_platforms/archive/smoke_history/SMOKE_QUESTIONS_V2.md 10 题 rerun",
            "Step 3 落档 dev/evidence/smoke_v2_results.md 并回报 X/10 PASS + CO-1/2/3 验证情况"
          ]
        },
        "N4_smoke_v2": {
          "status": "PASS_strict_8_of_10_ready_for_commit_c4b",
          "started_at": "2026-04-21",
          "completed_at": "2026-04-21",
          "executed_by": "user + claude cowork MCP agent (Chrome JS paste + Quill ngModel)",
          "gem_url": "https://gemini.google.com/u/1/gem/3b572e310813",
          "submission_method": "execCommand insertText + InputEvent dispatch + wait 2s + UI click (绕 Quill ngModel race)",
          "issues_encountered": "Q3/Q6 各踩 Quill ngModel race 一次, wait 2s 后 retry 成功; Pro mode 每次 navigate 需手动重选",
          "smoke_score_strict": "8/10 PASS",
          "smoke_score_partial": "8.5/10 (Q6 PARTIAL=0.5)",
          "recommended_scoring": "strict 8/10 (与 ChatGPT 口径一致 + Phase 4 gate 机械判)",
          "smoke_pass_fail_detail": {
            "Q1_CM_merge_2records": "PASS (2 条 + 5 Req + CMSEQ/CMSTDTC/CMINDC 全齐)",
            "Q2_AE_SAE_7_subvars": "PASS (AESER=Y + 6 子 Y/N + Core 属性对齐 KB)",
            "Q3_LB_HbA1c_NRIND": "FAIL (CO-2 拒答 H/N/L; 按 v2.1 修订判据拒答仍 FAIL, 但 v2.0 判据 H/N/L 本身与 KB 冲突 — 真实问题是 SMOKE 判据 bug, v2.1 已修)",
            "Q4_AESEV_CTCAE_Grade5": "PASS (三档对 + Grade 5 连锁; 建议'不映射, AESEV 留空, Grade 填 AETOXGR' 学术严格派)",
            "Q5_PC_LLOQ": "PASS (PCORRES=<0.1/BQL + PCSTRESN=Null + 3 点解释)",
            "Q6_ARMCD_ARM_switch": "PARTIAL (漏 ACTARM/ACTARMCD, 错层到 ADaM TRTP/TRTA 或 EX 域; 严判应 FAIL 因 ACTARM 是 SDTM DM 域 Permissible 变量非 ADaM)",
            "Q7_MH_CM_ongoing": "PASS (用 MHENRTPT 非 MHENRF, KB assumption §34a 偏好 MHENRF for RFSTDTC; 弱判 PASS, 严判 borderline)",
            "Q8_ISO8601_AESTDY": "PASS (ISO 8601 + 无 Day 0 + 部分精度 + 规则公式对齐 ch04 §4.4.4)",
            "Q9_SUPPAE_QNAM": "PASS (ISREAC 6 字符合规 + 非标 Qualifier 本质 + 完整结构字段)",
            "Q10_RELREC_vs_SUPP": "PASS (选 RELREC + 跨记录 vs 单记录 + 结构字段全对)"
          },
          "reviewer_subagent": "oh-my-claudecode:test-engineer (第 15 种独立 subagent_type, 规则 D)",
          "reviewer_verdict": "ADJUST (82% confidence)",
          "reviewer_phase4_gate_decision": "CONFIRM (过 ≥8/10 严格阈值)",
          "reviewer_evidence": "ai_platforms/gemini_gems/dev/evidence/smoke_v2_reviewer.md (主 session 代写, test-engineer 只读)",
          "reviewer_lane_pass": true,
          "reviewer_h1_finding": "SMOKE_QUESTIONS_V2.md Q3 FAIL 判据与 KB 四源冲突 (LB/spec.md L264 + model/02_observation_classes.md L168 + LB/assumptions.md L7 + terminology/core/general_part4.md L63-72 C78736 一致给 HIGH/LOW/NORMAL 全写). 与 ChatGPT tracer (第 14 种 subagent_type) 独立同款发现, 交叉验证强. SMOKE_QUESTIONS_V2.md v2.1 已修 Q3 判据.",
          "co_1_2_3_validation_from_smoke": {
            "CO-1_aeser_anchor": "严守 PASS (Q2 显式 AESER=Exp + 6 子=Perm; Q4 AESEV=Perm + AETOXGR=Perm; KB 全核对一致)",
            "CO-2_nci_guard": "灰度但实际合规 — Q3 拒答 H/N/L (KB 无原文), Q4 inline MILD/MODERATE/SEVERE (KB CDISC Notes Examples 原文有). system_prompt 应把隐规则显式化: 'KB Examples 里有的可 inline; 无原文必外导 NCI EVS'",
            "CO-3_citation": "严守 PASS (10 题全有源路径; Q6/Q8 带 §号, 格式粒度微不一 Phase 4 可规范)"
          },
          "evidence_paths": [
            "ai_platforms/gemini_gems/dev/evidence/smoke_v2_results.md",
            "ai_platforms/gemini_gems/dev/evidence/smoke_v2_answers/Q1_answer.md",
            "ai_platforms/gemini_gems/dev/evidence/smoke_v2_answers/Q2_answer.md",
            "ai_platforms/gemini_gems/dev/evidence/smoke_v2_answers/Q3_answer.md",
            "ai_platforms/gemini_gems/dev/evidence/smoke_v2_answers/Q4_answer.md",
            "ai_platforms/gemini_gems/dev/evidence/smoke_v2_answers/Q5_answer.md",
            "ai_platforms/gemini_gems/dev/evidence/smoke_v2_answers/Q6_answer.md",
            "ai_platforms/gemini_gems/dev/evidence/smoke_v2_answers/Q7_answer.md",
            "ai_platforms/gemini_gems/dev/evidence/smoke_v2_answers/Q8_answer.md",
            "ai_platforms/gemini_gems/dev/evidence/smoke_v2_answers/Q9_answer.md",
            "ai_platforms/gemini_gems/dev/evidence/smoke_v2_answers/Q10_answer.md",
            "ai_platforms/gemini_gems/dev/evidence/smoke_v2_reviewer.md"
          ],
          "carry_over_to_phase_4": [
            "HIGH CO-1 (from reviewer H1): SMOKE_QUESTIONS_V2.md v2.1 已修 Q3 判据 (本 session commit C4b 内), Phase 4 回归按 v2.1 判据",
            "HIGH CO-2 (from reviewer MED-1): Q6 ACTARM 错层是硬 SDTM 知识错, 04 业务弹药包必加 DM ACTARM/ACTARMCD 条目 + pitfall '不要说它们在 ADaM'",
            "MEDIUM CO-3 (from reviewer MED-2): CO-2 边界语义化 — system_prompt CO-2 段加子条款 'KB CDISC Notes Examples 里 term 可 inline; 无原文必外导 NCI EVS'",
            "MEDIUM CO-4 (from reviewer MED-3): 04 弹药包扩 15-25K 到 50-60K (Node 4 reviewer MED-1 + 本次 smoke 共同指向); 命中率 40% 偏低",
            "LOW CO-5: Q7 MHENRF 偏好补丁 — 04 加 'ongoing-with-RFSTDTC 走 --ENRF' 规则",
            "LOW CO-6: CO-3 源路径格式粒度统一 (§变量 vs §号)",
            "LOW CO-7: 封装 gemini_submit_stable.js helper (Phase 4 回归 20+ 题批量跑避免 Quill race)"
          ],
          "phase4_gate": "OPEN (≥8/10 严格过阈, Phase 4 可启; CO-1/CO-2 必须 Phase 4 前修)"
        }
      }
    },
    "4_review": {
      "status": "doing",
      "plan_doc": "ai_platforms/archive/smoke_history/PHASE4_PLAN.md",
      "node_plan_5_nodes": "N5.1 前置修复 (P1-P6 carry-over 消化) → N5.2 smoke v2.1 回归 → N5.3 Full A/B 矩阵 Gemini 10 题沿用 SMOKE_V2.1 → N5.4 Rule A 独立抽样 N=5 → N5.5 Phase 4 reviewer gate decision",
      "gate_criteria_phase_4_to_5": [
        "双平台 N5.3 AB_REPORT PASS 比 ≥ 90% (Gemini 10 题)",
        "双平台 Rule A 抽样一致性 ≥ 8/10",
        "N5.5 双 reviewer PASS/CONFIRM",
        "Rule D Phase 4 新增 subagent_type ≥ 4 种且独立",
        "用户 ack 进 Phase 5"
      ],
      "carry_over_from_phase_3_n4": {
        "P1_smoke_v2_1_q3_judgment_fix": "已修 in de97845 (SMOKE_QUESTIONS_V2.md v2.1), N5.2 回归按 v2.1 评分; Gemini Q3 CO-2 拒答设计仍 FAIL 可接受 (8→9/10 目标)",
        "P2_gemini_04_expand": "N5.1 executor 做: 04 从 30,488 tokens 扩 50-60K, 新增 RECIST/影像/Oncology/TrialDesign (TS/TI/TM)/IE/AG/PR 子域",
        "P3_gemini_04_dm_actarm": "N5.1 executor 做: 04 §DM 补 ACTARM/ACTARMCD Permissible 条目 + pitfall 'DM 域 Perm 非 ADaM'",
        "P4_gemini_sysprompt_co2_boundary": "N5.1 executor 做: system_prompt §CO-2 加子条款 'KB CDISC Notes Examples 里 term 可 inline; 无原文必外导 NCI EVS evsexplore URL'",
        "P5_chatgpt_low_cleanup": "N5.1 执行 (ChatGPT 侧, 本 _progress.json 不处理)",
        "P6_chatgpt_stage_2_ab_report": "N5.1 执行 (ChatGPT 侧)"
      },
      "rule_d_subagent_type_planning": {
        "n5_1_reviewer": "oh-my-claudecode:planner (第 17 种, 待启)",
        "n5_5_reviewer_gemini": "pr-review-toolkit:silent-failure-hunter (第 18 或 19 种, 待启)",
        "cumulative_independent_types": 15
      },
      "evidence_paths": [],
      "reviewer_lane_pass": false,
      "user_ack": false,
      "started_at": "2026-04-21",
      "completed_at": null,
      "nodes": {
        "N5_0_plan_doc": {
          "status": "PASS",
          "artifact": "ai_platforms/archive/smoke_history/PHASE4_PLAN.md",
          "completed_at": "2026-04-21",
          "user_ack": true,
          "user_ack_date": "2026-04-21",
          "user_ack_decisions": {
            "D1_5_node_plan_approved": true,
            "D2_multi_subagent_parallel_ok": true,
            "D3_chatgpt_extra_3_5_questions_main_session_drafts_user_reviews": true,
            "D4_commit_first_then_start_n5_1": true
          }
        },
        "N5_1_precondition_fixes": {
          "status": "PASS",
          "started_at": "2026-04-21",
          "completed_at": "2026-04-21",
          "dispatched_subagents": [
            "gemini_n5_1_writer (oh-my-claudecode:executor opus) — P2+P3+P4 完成: 04 扩 30,488→51,358 tokens (+68.5%, 命中 50-60K 目标); §1.6 DM ACTARM 硬锚点段 + §1.26 Quick Reference 重写 + §12-§24 新增 13 段 (Trial Design / IE / RECIST Oncology / AG / PR / 影像 / Events class / SUPPQUAL / 命名 checklist / EDC 补丁 / Specialty / Q&A / 反向索引); system_prompt v3→v4 6720→7093 chars CO-2 边界子条款; validate rc=0 V8b 0 命中; SDTM 事实自检 7/7 PASS",
            "chatgpt_n5_1_writer (oh-my-claudecode:executor opus) — P5 4 项 (ChatGPT 侧独立完成, 详见 ChatGPT _progress.json)",
            "main_session — P6 ChatGPT STAGE_2_AB_REPORT.md (不涉本平台)",
            "gemini_n5_1_reviewer (oh-my-claudecode:security-reviewer 第 17 种 subagent_type, Rule D, read-only) — Verdict CONDITIONAL_PASS 86%, 0 HIGH + 2 MED + 3 LOW + 2 SUGG; **独立 N=15 抽样** (CT code×7 + 源路径×5 + 业务断言×3) **不复用 writer 7**, 13/15 PASS (87% 超 Rule A 阈 80%); 2 MED (UR Label 窄化 + MIDS/SM 缺失 + §4.4.10→§4.4.11 章节号错引 2 处) 主 session 同 session 内闭合",
            "chatgpt_n5_1_reviewer (pr-review-toolkit:silent-failure-hunter 第 16 种 subagent_type, Rule D) — 独立审 ChatGPT 侧 (详见 ChatGPT _progress.json)"
          ],
          "subitems_completed": {
            "P2_04_expand_to_50_60k": "51,358 tokens PASS (目标区间 50-60K)",
            "P3_04_dm_actarm_hard_anchor": "§1.6 新增 80 行 DM ACTARM/ACTARMCD Permissible 硬锚点 + pitfall 显式 smoke Q6 错位反例 + §1.26 Quick Reference 重写",
            "P4_sysprompt_co2_boundary": "system_prompt v3→v4 CO-2 L53-56 新子条款 (KB Examples 有 inline / 无原文外导 NCI EVS)"
          },
          "rule_d_cumulative_subagent_types": 17,
          "rule_a_independent_n_15": "13/15 PASS (87%), 超 Rule A 阈 80%; CT code 7/7 + 源路径 3/5 + 业务 2/3",
          "med_resolved_in_session": {
            "MED1_ur_label_narrowing": "§22.7 'UR (Urinalysis) 尿检' → 'UR (Urinary System Findings) 尿系统发现域', 加 URTESTCD C129942 绑定 + 业务边界说明",
            "MED2a_mids_sm_triangle_relationship": "§12.4 MIDS 跨域耦合段重写为 MIDS 三角关系: TM 定义 + SM 记录实例 + general observation domain 通过 --MIDS 引用; 加 pitfall '只有 TM 没 SM = 找不到 milestone target'; 源路径加 knowledge_base/domains/SM/spec.md",
            "MED2b_ch04_section_number": "§12.4 + §24.3 源路径 '§4.4.10 (MIDS vs RELREC)' → '§4.4.11 Disease Milestones and Disease Milestone Timing Variables' (2 处全修)"
          },
          "post_fix_validate_rerun": "total 637,308 tokens (+325 vs pre-fix 636,983) / rc=0 PASS / 4 文件矩阵全绿 / V8b 0 命中 / buffer to 900K WARN 262,692",
          "evidence_paths": [
            "ai_platforms/gemini_gems/current/uploads/04_business_scenarios_and_cross_domain.md",
            "ai_platforms/gemini_gems/current/system_prompt.md",
            "ai_platforms/gemini_gems/dev/evidence/validate_single_batch.md",
            "ai_platforms/gemini_gems/dev/evidence/node5_1_gemini_writer_summary.md",
            "ai_platforms/gemini_gems/dev/evidence/phase4_n5_1_reviewer.md"
          ],
          "carry_over_low_non_blocking_to_n5_2_or_n5_5": [
            "LOW: writer summary char count 自述 7087 vs 实测 7093 差 6 (统计口径 bug, 非事实错)",
            "LOW: TI 核心变量口径 writer 6 subset 合理 (KB 8 变量, writer 表列 6 业务 + STUDYID/DOMAIN 合规)",
            "LOW: §22.3 CP 'Cell Phenotype Findings' Label 未独立核 (CP 域文件存在 ✅ 但 Label 精确性 reviewer 未反查)",
            "SUGG (reviewer): writer 下次增 N=10 随机 KB 反查自检, 降低 self-confirming bias",
            "SUGG (reviewer): Rule E Q5 平权角度 §1.26 Quick Reference 未纳入 specialty 域, Node 5.5 清理可扩",
            "CARRY-N5-2 (from N4 reviewer, 技术债延续): V8 pattern v2.1 收紧 (只 FAIL 真 Term Submission Value)"
          ]
        },
        "N5_2_smoke_v2_1_regression": {
          "status": "PASS_9_of_10_strict_with_N5_1_self_pollution_root_cause_revealed_and_v5_fix_applied",
          "started_at": "2026-04-21",
          "completed_at": "2026-04-21",
          "executed_by": "user + claude-in-chrome MCP (Chrome JS Quill helper)",
          "gem_url": "https://gemini.google.com/u/1/gem/3b572e310813",
          "step3_verify_gate": "PASS 4/4 — §1.6 DM ACTARM / §12.4 MIDS-SM / §22.7 UR Label / CO-1 AESER 边界 all landed, independent verification",
          "step4_smoke_v2_1": "PASS 9/10 strict — Q1/Q2/Q4/Q5/Q6/Q7/Q8/Q9/Q10 PASS, Q3 FAIL (root cause N5.1 self-pollution, not Gemini reasoning)",
          "delta_vs_node4_smoke_v2_0": "+1 (8→9), Q6 FAIL→PASS due to N5.1 §1.6 DM ACTARM hard anchor landing",
          "q3_fail_root_cause": "N5.1 Gemini writer 在 system_prompt v4 L65 CO-2 子条款原创虚构 'LBNRIND 的 L/N/H' 示例; KB LB/spec.md L264 + LB/assumptions.md L7 + terminology/core/general_part4.md L63-72 C78736 实际全部为 HIGH/LOW/NORMAL 全写; Gemini 忠实执行 v4 L65 虚构指令 inline H/N/L 直接触 SMOKE v2.1 FAIL 判据",
          "q3_fail_is_instruction_level_contradiction_not_gemini_reasoning_error": true,
          "dispatched_subagents": [
            "gemini_n5_2_reviewer (oh-my-claudecode:verifier 第 18 种 subagent_type, Rule D, Write) — Verdict CONDITIONAL_PASS 88% Gate CONFIRM, 430 行 64 citations, 独立验证 N5.1 自污染假设 SUPPORTED + Rule A N=3 (Q1/Q6/Q9) 3/3 无翻转 + 独立核实三硬锚点生效 + 发现 HIGH-1 + MED-1 + MED-2 + LOW-1/2",
            "chatgpt_n5_2_reviewer (oh-my-claudecode:planner 第 19 种 subagent_type, Rule D, Write) — Verdict CONDITIONAL_PASS 88% Gate CONFIRM with 1 ADJUST, 413 行 90 citations, 独立抽样 Rule A N=5 (Q3+Q7+Q5+Q8+Q10) 5/5 判据命中 + 跨平台 Q3 对照 B 主因 70%+A 次因 30% + 独立 Grep `LBNRIND` ChatGPT system_prompt 0 匹配确认无等价自污染 + Q7 CMINDC 双因归因 KB 60%+v2.1 bullet 40% + N5.1 P5 4 项全真合规"
          ],
          "rule_d_cumulative_subagent_types": 19,
          "v5_fix_applied_main_session": {
            "fix_1_HIGH_1_LBNRIND_CT_anchor": "system_prompt.md CO-2 subclause 重写 AESEV(C66769)/AESER(C66742)/LBNRIND(C78736) 三条以 CDISC CT 官方为准 + LBNRIND 禁 H/L/N 单字符硬锚",
            "fix_2_MED_1_ACTARMCD_ACTARM_Core_Exp_anchor": "system_prompt.md CO-1b 新段 DM 域 ACTARMCD/ACTARM Core=Exp 硬锚 (区别 ARMCD/ARM Core=Req)",
            "fix_3_MED_2_ARM_no_CT_NCI_guard": "system_prompt.md CO-2c 新段 ARM/ACTARM protocol-specific 自由文本无 CT codelist 约束, 禁 NCI code 误引 (如 C66735 Route of Admin)",
            "char_count_final": "7925 / 8000 budget / 0.94% buffer",
            "version_header": "v4 → v5"
          },
          "cross_file_pollution_fix_04_knowledge_v5b": {
            "discovery_date": "2026-04-21",
            "discovery_trigger": "user 反问 '只需要改 Instructions, 文件不需要改动吗' → 主 session grep 04 发现 6 处同源污染",
            "root_cause_expanded": "N5.1 Gemini writer 不仅在 system_prompt v4 L65 虚构 LBNRIND L/N/H 示例, 还**同步写入** 04_business_scenarios_and_cross_domain.md 6 处 (最致命 L156 反向 pitfall 明文教 'HIGH/LOW 写错, L/N/H 才对'; L153/L1422 Q3 答案预埋 H; L145 表格值; L147-151 三档锚点段; L1189 CT index; L1669 FAQ); 如不修 04 仅修 system_prompt, Gemini 在 1M context 里会同时看到 v5 system_prompt 全写 vs 04 L156 pitfall 反向教错, domain knowledge 框架更强大概率跟 04 走",
            "fixes_applied_04": {
              "L145_variable_table_value": "'\"H\"' → '\"HIGH\"', 三档描述 'L/N/H 或空' → '四档全写 ABNORMAL/HIGH/LOW/NORMAL'",
              "L147_to_L153_anchor_block": "三档 L/N/H 说明 → 四档全写 + '必须全写, 禁短码' 说明段 + 本场景 H → HIGH",
              "L156_reverse_pitfall_flipped": "'LBNRIND 写 HIGH/LOW — 错. 三字母档 H/L/N' → '写 H/L/N 单字符 — 错. 官方全写 HIGH/LOW/NORMAL/ABNORMAL, 单字符短码非 CDISC 官方, 提交被 reject'",
              "L1189_CT_index": "'(三档)' → '(官方四档全写 HIGH/LOW/NORMAL/ABNORMAL, 禁 H/L/N 单字符)'",
              "L1422_Q3_smoke_mapping": "'LBNRIND=\"H\" (L/N/H 三档)' → 'LBNRIND=\"HIGH\" (C78736 四档全写 HIGH/LOW/NORMAL/ABNORMAL, 禁 H/L/N 单字符)'",
              "L1669_FAQ": "'三档 L/N/H 或 ABNORMAL. 不填 HIGH/LOW' → '官方 submission values 全写: HIGH/LOW/NORMAL/ABNORMAL, 禁 H/L/N 单字符'"
            },
            "post_fix_validate": "rc=0 PASS, total 637,648 tokens (+340 vs pre-fix 637,308), 4 stages 全绿",
            "residual_h_l_n_references_in_04": "5 处, 全部在正向 pitfall/negative context ('禁 H/L/N 单字符' / '错. 官方全写'), 无反向教错",
            "lesson_cross_file_systemic_pollution": "N5.1 writer 把虚构术语**同步写入** system_prompt + 04, 修一个不够 — 必须全文扫描跨文件同源引用. 教训纳入 Rule E/reviewer checklist: writer 产物审查必须 grep 跨文件关键字一致性."
          },
          "phase4_gate": "CONFIRM (双审独立 gate CONFIRM + v5 fix 已落, 用户 Web UI 更新 v5 + Q3 单题补测后 → N5.3 Full A/B)",
          "evidence_paths": [
            "ai_platforms/gemini_gems/dev/evidence/smoke_v2_1_results.md",
            "ai_platforms/gemini_gems/dev/evidence/smoke_v2_1_verify_results.md",
            "ai_platforms/gemini_gems/dev/evidence/smoke_v2_1_answers/Q1_answer.md",
            "ai_platforms/gemini_gems/dev/evidence/smoke_v2_1_answers/Q2_answer.md",
            "ai_platforms/gemini_gems/dev/evidence/smoke_v2_1_answers/Q3_answer.md",
            "ai_platforms/gemini_gems/dev/evidence/smoke_v2_1_answers/Q4_answer.md",
            "ai_platforms/gemini_gems/dev/evidence/smoke_v2_1_answers/Q5_answer.md",
            "ai_platforms/gemini_gems/dev/evidence/smoke_v2_1_answers/Q6_answer.md",
            "ai_platforms/gemini_gems/dev/evidence/smoke_v2_1_answers/Q7_answer.md",
            "ai_platforms/gemini_gems/dev/evidence/smoke_v2_1_answers/Q8_answer.md",
            "ai_platforms/gemini_gems/dev/evidence/smoke_v2_1_answers/Q9_answer.md",
            "ai_platforms/gemini_gems/dev/evidence/smoke_v2_1_answers/Q10_answer.md",
            "ai_platforms/gemini_gems/dev/evidence/phase4_n5_2_smoke_reviewer.md",
            "ai_platforms/gemini_gems/current/system_prompt.md (v5)"
          ],
          "carry_over_to_n5_3": [
            "HIGH-1 (已 v5 修, 待补测验): Gemini Q3 LBNRIND 回归补测 — 用户 Web UI 更新 v5 后单题问 HbA1c 判据验 HIGH/LOW/NORMAL 全写 FAIL→PASS",
            "MED-1 (已 v5 修, 待 N5.3 验): ACTARMCD/ACTARM Core=Exp 硬锚 — N5.3 Q6 回归可验",
            "MED-2 (已 v5 修, 待 N5.3 验): ARM/ACTARM 无 CT 禁 NCI code 误引",
            "LOW: Q7 MHENRF 偏好补丁 (04 加 'ongoing-with-RFSTDTC 走 --ENRF' 规则)",
            "LOW: CO-3 源路径格式粒度统一 (§变量 vs §号)",
            "LOW (from ChatGPT reviewer ADJUST): SMOKE v2.2 Q4 判据偏离 C66769 可选修订 (ChatGPT 答案已正确更严谨, 不扣 PASS)",
            "LOW (from Gemini reviewer): Q6 ACTARMCD/ACTARM Core=Req 小错 (现已 v5 硬锚修)",
            "SUGG: writer 自检 N=7→N=10 负例, N5.3 跨平台 10 题核心子集 1:1 对照"
          ],
          "user_action_awaiting": [
            "Step 1: 更新 Gemini Custom Instructions v5 (7925 chars, 粘贴 ai_platforms/gemini_gems/current/system_prompt.md) — DONE 2026-04-21",
            "Step 2: 删 Gemini 老 04 knowledge file + 重传新 04 (v5b, 637,648 tokens 含 6 处 LBNRIND 污染修) — DONE 2026-04-21",
            "Step 3: 单题补测 Q3 (HbA1c LBNRIND 判据) — DONE 2026-04-21 **PASS**: Gemini 答 LBNRIND=HIGH + 三档全写 LOW/NORMAL/HIGH + '严禁使用单字符 H' + 主动引 CO-2 硬约束 + 主动引 04 §3.1 + NCI EVS 外链加分",
            "Step 4: 用户 ack 进 N5.3 Full A/B — PENDING (主 session 等用户决定 N5.3 题库设计: 是否含 generalization probe 防 04 scenarios 作弊嫌疑)"
          ],
          "q3_retest_closure": {
            "date": "2026-04-21",
            "verdict": "PASS",
            "evidence": "ai_platforms/gemini_gems/dev/evidence/smoke_v2_1_q3_retest.md",
            "fix_effectiveness_confirmation": "v5 system_prompt CO-2 LBNRIND 硬锚 + v5b 04 六处翻转双保险生效; Gemini 答案主动引用两者, 并加 'L/N/H 旧版可能见过但规范数据必须全写' 超预期解释",
            "gemini_equivalent_score_under_v5_v5b": "10/10 (Q3 补测闭合, 其他 9 题不变)",
            "dual_platform_equivalence": "双平台 Q3 同款 PASS, v5+v5b fix 完全闭合 N5.2 carry-over"
          },
          "n5_3_design_open_question_raised_by_user_2026_04_21": {
            "user_observation": "04_business_scenarios_and_cross_domain.md 预设了很多场景 (§1.1-§1.x 26 scenarios + §9 FAQ); 若 smoke 题直接问这些场景, 是不是作弊?",
            "honest_answer": "部分作弊成分 (scenario overlap high), 但这是 Gemini 无 RAG + 1M window 约束下的 tradeoff (必须 pre-compress 才能全覆盖). ChatGPT 有 RAG + 2.5M tokens terminology, 所以不需要 scenario preset.",
            "n5_3_implication": "N5.3 Full A/B 必须引入 **generalization probe** — 至少 30-40% 题目设计成 04 scenarios 之外的新业务问题, 测 Gemini 对 01/02/03 的原生 knowledge 利用能力 (不单纯背 04 答案)"
          }
        }
      }
    },
    "5_closure": {
      "status": "locked",
      "evidence_paths": [],
      "reviewer_lane_pass": false,
      "user_ack": false,
      "started_at": null,
      "completed_at": null
    },
    "4_n5_3_step3_smoke_v3_execution": {
      "status": "DONE",
      "completed_at": "2026-04-22",
      "executor": "主 session Chrome MCP 全自动驱动 Pro mode",
      "evidence_paths": [
        "ai_platforms/gemini_gems/dev/evidence/smoke_v3_answers/Q_sanity_1_answer.md",
        "ai_platforms/gemini_gems/dev/evidence/smoke_v3_answers/Q_sanity_2_answer.md",
        "ai_platforms/gemini_gems/dev/evidence/smoke_v3_answers/Q_sanity_3_answer.md",
        "ai_platforms/gemini_gems/dev/evidence/smoke_v3_answers/Q_sanity_4_answer.md",
        "ai_platforms/gemini_gems/dev/evidence/smoke_v3_answers/Q1_answer.md",
        "ai_platforms/gemini_gems/dev/evidence/smoke_v3_answers/Q2_answer.md",
        "ai_platforms/gemini_gems/dev/evidence/smoke_v3_answers/Q3_answer.md",
        "ai_platforms/gemini_gems/dev/evidence/smoke_v3_answers/Q4_answer.md",
        "ai_platforms/gemini_gems/dev/evidence/smoke_v3_answers/Q5_answer.md",
        "ai_platforms/gemini_gems/dev/evidence/smoke_v3_answers/Q6_answer.md",
        "ai_platforms/gemini_gems/dev/evidence/smoke_v3_answers/Q7_answer.md",
        "ai_platforms/gemini_gems/dev/evidence/smoke_v3_answers/Q8_answer.md",
        "ai_platforms/gemini_gems/dev/evidence/smoke_v3_answers/Q9_answer.md",
        "ai_platforms/gemini_gems/dev/evidence/smoke_v3_answers/Q10_answer.md",
        "ai_platforms/gemini_gems/dev/evidence/smoke_v3_results.md"
      ],
      "sanity_result": "4/4 PASS (底座 v5+v5b 仍 lock)",
      "smoke_v3_score": "7/10 strict PASS = 70% borderline-at-threshold",
      "gate_decision": "PASS at threshold (可进 Phase 4 Node 5.4 跨平台对比)",
      "pass_breakdown": {
        "PASS": [
          "Q4 IS/MB",
          "Q5 FA/QS/CE (FA→MH)",
          "Q6 PK Timing PT4H",
          "Q7 partial date ISO 8601 + SDTM/ADaM",
          "Q8 CT Ext/NonExt",
          "Q9 Pinnacle 21",
          "Q10 SUPP-- 家族"
        ],
        "FAIL": [
          "Q1 GF (GFGENSR/GFPVRID/GFGENREF/GFINHERT 全臆造为 GFLOC/GFREFID/GFREFVER/GFSTYPE)",
          "Q2 CP (CPSBMRKS/CPCELSTA/CPCSMRKS 3 v3.4 新变量漏, 说'没有独立 --MARKER/--SUBSET')",
          "Q3 BE/BS 命名倒置 (BS 当 Events, 臆造 BM 当 Findings)"
        ]
      },
      "fail_pattern_analysis": {
        "root_cause": "v3.4 新域 (GF/CP/BE/BS) 变量层 generalization 失败. pre-train 语料的 '--XX 通用模式' (--LOC/--REFID/--REFVER/--STYPE) 压过 v3.4 KB 实际 spec.md. 架构级 domain/variable 都是 v3.4 后引入, Gemini 1M 窗口 + semantic retrieve 深度不足以 pull up 专属 spec 片段.",
        "surface_symptom": "识域正确 + Core Req 列齐 + 源路径引用对 — 但专属变量名全换成 pre-train 惯用命名",
        "successful_mode": "业务边界 (IS/MB/FA/QS/CE/LB) + Timing/CT/SUPP/Pinnacle21 (工程层) + 部分日期 SDTM/ADaM 分工 — 7/7 PASS"
      },
      "04_citation_rate": "6/10 smoke questions (60%); 3 直接命中业务弹药包 (Q3 §10 + Q4 §1.3 + Q10 §4)",
      "co2_trigger_count": "3 (Q2 EVS C85492 + Q8 EVS + Q9 LBNRIND C78736), 均合理",
      "gate_criteria_assessment": "threshold ≥7/10 met exactly (borderline-pass). 3 FAIL 呈现统一 v3.4 新域 generalization pattern — 建议 N5.4 跨平台时重点对比 ChatGPT GPTs 在 Q1/Q2/Q3 相同 3 题是否同模式失败: 若 ChatGPT 也 3 连 FAIL → 双平台共性缺陷 (v5 system_prompt 未锚 v3.4 新域 + 04 §10 未接入变量层 spec) 需 v5c 补锚; 若 ChatGPT 3 连 PASS → Gemini 单平台 retrieve 策略缺陷需 Gemini-specific 优化.",
      "carry_over_to_n5_4": [
        "HIGH: v3.4 新域变量 generalization 3 连 FAIL (Q1/Q2/Q3) — 跨平台对比必须覆盖同 3 题",
        "OBSERVATION: 04 引用率 60% 合理; 非 04 题 (Q1 Q7 Q8 Q9) 也能 3/4 PASS, 证明非 04 专属模式稳固",
        "OBSERVATION: sanity 4/4 + smoke 7/10 双档验证, Phase 3 KB 上传与 v5/v5b system_prompt 双保险仍 lock"
      ]
    },
    "4_n5_3_step5_reviewer_23_code_architect": {
      "status": "PASS",
      "completed_at": "2026-04-22",
      "subagent_type": "feature-dev:code-architect",
      "rule_d_slot": 23,
      "verdict": "BORDERLINE PASS CONFIRMED 88%",
      "gate_decision": "OPEN for Phase 4→5",
      "final_score": "7/10 confirmed, no rescoring",
      "report_path": "ai_platforms/gemini_gems/dev/evidence/phase4_n5_3_smoke_reviewer.md",
      "rule_a_sample_size": "N=7 (Q1 GF KB grep / Q2 CP KB grep / Q3 BE/BS/BM KB grep / Q4 IS scope / Q7 partial date / Q10 QVAL attribution / Q4 scope reasoning depth)",
      "findings_high": 0,
      "findings_medium": 2,
      "findings_low": 2,
      "root_cause_attribution": {
        "primary_B_system_prompt_anchor_gap": "CONFIRMED — v5+v5b 7925 chars 无 GF/CP/BE/BS 变量锚; CO-1 AE + CO-1b DM + CO-2 LBNRIND + CO-2c ARM 均不覆盖 v3.4 新域",
        "secondary_A_attention_competition": "CONFIRMED — 616K tokens full-context 下低频变量名 (GFGENSR Order 32 单次) 抵不过 pre-train --XX 通用命名",
        "C_KB_coverage_ruled_out": "EXCLUDED — 独立 KB grep GFGENSR/GFPVRID/GFGENREF/GFINHERT + CPSBMRKS/CPCELSTA/CPCSMRKS + BE Events/BS Findings 全存在"
      },
      "MED_1_v5c_anchor_injection": "CO-4 v3.4 新域变量硬锚 (GF/CP/BE/BS) 建议注入 system_prompt v5c, draft 已产 ai_platforms/gemini_gems/current/system_prompt_v5c_draft.md (估 9,525/10,000 chars, 4.75% buffer), 未应用至 Gem UI, 用户 D2 决定 N5.4 前/并行, 推荐 N5.4 完成后应用",
      "MED_2_Q10_QVAL_split_mechanism": "Gemini 答 QVAL 200 char 归因 SAS XPT V5 (match v3.1 PASS criterion), 但未区分 'QVAL 物理约束' vs '父域 GOC 变量拆分触发 ch04 §4.5.3.2', 挪 Phase 5 retrospective 为题目设计改进",
      "LOW_1_Q4_IS_scope_risk_did_not_materialize": "21 种 reviewer HIGH-2 预警 Q4 IS scope v3.3→v3.4 记忆干扰未触发, KB IS assumptions 1-3 (02 file) 充分引导正确 v3.4 答案, 正向 finding 记 retrospective",
      "LOW_2_Q3_04_citation_didnt_save_variable_layer": "Q3 04 §10 Biospecimen cross-domain 引用指导 RELSPEC (Gemini 答对) 但未救 BE/BS 变量名倒置, 证业务层 guidance 无法替代 system_prompt 变量层锚",
      "cross_platform_asymmetry_phase5_implication": "ChatGPT 10/10 vs Gemini 7/10 on same Q1-Q10 + Q1/Q2/Q3 3 连 FAIL 集中在 v3.4 新域变量层. 架构差 RAG 选择检索 vs Full-context 注意力竞争, 非题目缺陷. Phase 5 retrospective 必记: 按题型分段评估 (新域命名 ChatGPT 强 / 跨域 Gemini 相当 / 业务边界持平)",
      "phase4_gate_decision": "OPEN (用户 ack 2026-04-22 D3)",
      "D1_bank_v3_2_applied": "smoke_v3_questions_draft.md v3.1 → v3.2 (F-R1 substitution for ChatGPT Q8/Q9 官方记录 + C66727 label fix)",
      "D2_v5c_draft_parallel": "system_prompt_v5c_draft.md produced, ready for post-N5.4 application decision"
    }
  },
  "4_n5_4_cross_platform_ab_with_v5c_delta": {
    "status": "DONE",
    "completed_at": "2026-04-22",
    "report_paths": [
      "ai_platforms/gemini_gems/dev/ab_reports/STAGE_PHASE4_AB_REPORT.md",
      "ai_platforms/chatgpt_gpt/dev/ab_reports/STAGE_PHASE4_AB_REPORT.md",
      "ai_platforms/gemini_gems/dev/evidence/smoke_v3_v5c_delta.md"
    ],
    "v5c_sync_at_current_executed": "ai_platforms/gemini_gems/current/system_prompt.md 从 v5 → v5c (CO-4 GF/CP/BE/BS v3.4 新域变量硬锚 merged from draft); system_prompt_v5c_draft.md 已删; char_count wc -m ~11,052 (draft est. 9,525 / 10,000), applied to Gem UI 2026-04-22 by user paste",
    "v5c_delta_retest_3_of_3_questions": {
      "Q1_GF_result": "PASS 4/4 — GFGENSR/GFPVRID/GFGENREF/GFINHERT 全命中 + 主动 echo 反向锚 '禁 GFLOC/GFREFVER/GFSTYPE'; evidence: dev/evidence/smoke_v3_answers/Q1_v5c_answer.md",
      "Q2_CP_result": "PASS 3/3 — CPSBMRKS/CPCELSTA/CPCSMRKS 全命中 + 首句反转 'SDTM 无独立原生变量' 为 '已定义完全独立的原生变量' + 主动引 CPTEST Sub 后缀规则 (CP assumptions §5); evidence: dev/evidence/smoke_v3_answers/Q2_v5c_answer.md",
      "Q3_BE_BS_result": "PASS — BE=Events (COLLECTION/TRANSPORT/PREPARATION/EXTRACTION) / BS=Findings (VOLUME/RIN C124300) 未倒置 + 主动 echo '严禁臆造 BM' + RELSPEC 区分 RELREC + 双域并行规则主动引; evidence: dev/evidence/smoke_v3_answers/Q3_v5c_answer.md",
      "verdict": "3/3 PASS = §5.2 阈 '≥3/3 PASS 完全生效' 达"
    },
    "gemini_equivalent_smoke_v3_score_post_v5c": "7/10 baseline → 10/10 (等价 PASS; Q4-Q10 未重跑, 等价假设 v5c 只加 CO-4 不动其他 CO 段 + KB uploads 不变, 无回归风险; Phase 5 可选全量 10 题回归作 retro 补证)",
    "cross_platform_closure_q1_q10_shared": "Gemini 10/10 (v5c) vs ChatGPT 10/10 (baseline) = gap 30pp → 0pp",
    "phase5_retro_primary_findings": {
      "finding_1_co4_effective": "system_prompt 锚注入 CO-4 pattern 对 full-context 架构新域变量命名层 3/3 完全生效, 推翻 baseline reviewer 23 需 '激进策略 (KB 内嵌负例 / 04 扩)' 的悲观假设",
      "finding_2_prime_position_over_capacity": "证 'attention 竞争' 本质是 prime 位置问题非容量问题: system_prompt 头部锚 ~3K chars 权重 >> 616K tokens 尾部 rare-token 权重",
      "finding_3_template_pattern": "CO-4 4 段式结构 (正向变量列 + 反向禁语 + 执行规则 3-4 条 + CT 绑定) 约 3K chars/新域, 应纳入 ai_platforms/_template/ 给 ChatGPT/Gemini 未来新域扩展套用 (SDTMIG v4.x 若再引入新域时直接套用)",
      "finding_4_writer_checklist_gap": "N4 writer 产 v5 时未预见 v3.4 新域 probe; Phase 5 建议 writer checklist 加 '每新域 spec 是否在 system_prompt 锚到' 必验条"
    },
    "rule_d_carry_to_n5_5": "双 AB_REPORT + v5c_delta Rule D 第 24/25 种 subagent_type 独立审 COMPLETE 2026-04-22 PM (见 rule_d_24_25_reviewers_completed 块)",
    "rule_d_24_25_reviewers_completed": {
      "date": "2026-04-22",
      "slot_24_chatgpt_side": {
        "subagent_type": "oh-my-claudecode:code-reviewer",
        "reviewer_evidence_path": "ai_platforms/chatgpt_gpt/dev/evidence/phase4_n5_4_reviewer.md",
        "verdict": "CONDITIONAL_PASS ~82%",
        "findings_count": "0 HIGH / 3 MEDIUM / 4 LOW / 3 SUGGESTION",
        "medium_summary": [
          "M-1: Rule D reviewer-slot counting ambiguity (§2 AB 说 23 累计, 需澄清 slot 24/25 的起点)",
          "M-2: Q4-Q10 equivalence PASS 是推论未实测, §5.2 未引 diff hash/line-range 作 provenance",
          "M-3: §6.2 GAP 未显式 restate SYNC_BOARD 3 必记项 (a)(b)(c), 仅 G-1 approximate 覆盖 (c)"
        ],
        "gate_recommendation": "OPEN (MEDIUM 是 documentation hygiene, 非科学瑕疵)"
      },
      "slot_25_gemini_side": {
        "subagent_type": "feature-dev:code-explorer",
        "reviewer_evidence_path": "ai_platforms/gemini_gems/dev/evidence/phase4_n5_4_reviewer.md",
        "verdict": "PASS ~91%",
        "findings_count": "0 HIGH / 1 MEDIUM / 2 LOW",
        "medium_summary": [
          "MED-1: Q4-Q10 equivalence claim 需 Phase 5 正式注册 'optional v5c 全量 10 题回归' 作 verification task (与 slot 24 M-2 交叉独立 flag, 说明是真实弱点)"
        ],
        "independent_kb_grep_confirmed": "7 变量 GFGENSR/GFPVRID/GFGENREF/GFINHERT + CPSBMRKS/CPCELSTA/CPCSMRKS + BE Class=Events + BS Class=Findings + CT codes C181177/C181172/C124300 全独立 grep 真; live system_prompt.md CO-4 lines 85-136 完整验; draft file 确认删除",
        "cross_section_dependency_chain_verified": "§1→§3→§5→§6 无 broken link; inference node at §5.2 Q4-Q10 正确 qualified as assumption not measurement",
        "gate_recommendation": "OPEN"
      },
      "cross_reviewer_converged_finding": "Q4-Q10 等价 10/10 是假设未实测 — 双 reviewer 独立 flag (#24 M-2 + #25 MED-1) 确证为真实弱点, Phase 5 必须正式注册 'optional v5c 全量回归' 补证任务",
      "phase5_retro_input_quality_assessment": {
        "F1_co4_effective_full_context": "STRONG empirical; #25 note: N=3 单 session, multi-run 稳定性未测",
        "F2_prime_position_over_capacity": "PLAUSIBLE 但 THEORETICAL; #25 建议措辞 '证' → 'suggests' (观察 CO-4 worked 是 empirical, '因 prime 位置' 是机制推论, 应区分)",
        "F3_writer_checklist_gap_template_pattern": "STRONG for checklist gap; template 具体内容待 Phase 5 fleshed out"
      },
      "rule_d_cumulative_chain_count_synced_side": 25,
      "rule_d_24_25_new_subagent_types_added": [
        "oh-my-claudecode:code-reviewer",
        "feature-dev:code-explorer"
      ]
    },
    "smoke_v4_r1_and_r2_v6_draft_2026_04_22_to_23": {
      "r1_baseline_executed": "2026-04-22 evening cowork via Chrome MCP, 17 questions (Q1-Q14 + AHP1-3), results at dev/evidence/smoke_v4_results.md",
      "r1_gemini_score": "12.0/17 strict (70.6%) post 13th reviewer A3 Q13 re-score PASS→PARTIAL; 原 R1 填 12.5/17 (73.5%); 主 gate 8.5/13 = 65.4% FAIL (AHP × 3 全 FAIL 拖分)",
      "r1_failure_pattern": "3 AHP fabrication 模式: AHP1 LBCLINSIG 编 C66742 + Core=Perm + 编 LBNRIND C78419 错; AHP2 编完整 RELREC 跨层 IDVAR=TSPARMCD + USUBJID=NULL; AHP3 编 PF 6 Req + 4 Exp + C114119 + 把 GF 变量改名加 PF 前缀",
      "r2_v6_draft_produced": "dev/v6_draft/system_prompt_v6.md 2026-04-23 AM (349 行 / 18,716 chars post 13th reviewer A1 dual-grep 插入; 原 draft 17,883 chars)",
      "r2_v6_main_additions": [
        "CO-5 ANTI-HALLUCINATION GUARDRAIL (AHP-V1 变量级 + AHP-V2 跨域层级 + AHP-V3 Deprecated concept + 6 共同执行规则)",
        "CO-2e 子条款 (C66742 NY 4值 Y/N/U/NA + C66767 Non-Ext, Q8 R1 修)",
        "回答规范 多场景题逐场景显式答 (Q4 R1 修)",
        "回答规范 SDTM vs ADaM 边界 --DTF ADaM-only (Q7 R1 修)",
        "路由规则 1/3/4/7 插 CO-5 check hook + 新增 Route 7 Deprecated",
        "边界处理模板 ⑥⑦⑧ 对应 AHP-V1/V2/V3",
        "工作流程 Step 0 前提核 + Step 9 多场景 + Step 10 sanity 自检"
      ],
      "rule_d_26_13th_slot_reviewer_completed": {
        "subagent_type": "pr-review-toolkit:code-reviewer",
        "slot_numbering": "26th cumulative (ChatGPT+Gemini+NotebookLM combined lane, 25+1) = '13th slot' NEXT_STEPS shorthand (R2 line 1-based count from NotebookLM chain side)",
        "date": "2026-04-23",
        "verdict_overall": "CONDITIONAL_PASS",
        "conditional_on": [
          "A1 HIGH: insert dual-grep-confirmation clause in CO-5 AHP-V1 (applied 2026-04-23)",
          "A2 HIGH: verify v6 char count against Gemini Gems UI actual limit before R2 paste (pending cowork step)",
          "A3 MEDIUM: re-score Gemini Q13 PASS → PARTIAL (applied 2026-04-23 across smoke_v4_results.md + SMOKE_V4.md §3 + R1_RETROSPECTIVE.md)"
        ],
        "task_1a_scoring": {
          "arithmetic_verified": "main gate 8.5/13 = 65.4% arithmetic correct",
          "ahp_x3_fail_defensible": "confidence 95 — no disagreement, FAIL verdicts correct",
          "q13_disagreement": "confidence 82 — PASS should be PARTIAL (ARMCD NOT ASSIGNED + OBSERVATIONAL GROUP 虚构 双defect)",
          "other_platforms": "confidence 85 — Claude 17/17, ChatGPT 16.5/17, NotebookLM 15/17 all defensible"
        },
        "task_1b_v6_adequacy": {
          "ahp_v1_fix": "confidence 90 YES — targeted KB check + SUPP-- NSV path template",
          "ahp_v2_fix": "confidence 88 YES — subject-level invariant + ADaM/CSR quarantine explicit",
          "ahp_v3_fix": "confidence 92 YES — deprecated concept table + irony 自检 rule",
          "micro_fixes_q4_q7_q8": "confidence 85 each — targeted and likely effective",
          "risk_a_false_positive_nsv": "confidence 85 — Gemini long-context recall ~60% risks flagging real variables as NSV; A1 dual-grep rule mitigates",
          "risk_b_char_budget": "confidence 82 — v6 17.9K vs v5c 11.1K; UI limit >11K unknown; A2 pre-paste verify required",
          "risk_c_routing_gap": "confidence 78 LOW — Routes 2-5 missing CO-5 hooks; mitigated by Workflow Step 0"
        },
        "reviewer_report_path": "dev/evidence/r2_13th_reviewer.md (persisted by main session 2026-04-23)",
        "action_items_status_2026_04_23": {
          "A1_HIGH_dual_grep_applied": true,
          "A2_HIGH_char_count_preverify_pending_cowork": true,
          "A3_MEDIUM_q13_rescored_applied": true,
          "A4_LOW_co2e_compression_deferred": "optional, deferred to post-R2 or v7",
          "A5_LOW_phase5_carryover_logged": "logged in next_action below"
        }
      },
      "r2_rerun_status": "COMPLETE (2026-04-23 PM, cowork Chrome MCP 单 session 连续 17 题; v6-post-A1 18,716 chars 已 pre-apply to Gem UI, Save disabled 验证 saved state)",
      "r2_threshold_design": "AHP × 3 hard gate (≥2/3) + Q1-Q10 ≥7/10 + bonus Q11-Q14 容错 (严于原 R1 ≥9/13 summing)",
      "r2_main_session_score": {
        "q1_to_q10_main": "9.5/10 (95%) — Q1 PARTIAL(0.5, GFGENE regression) + Q2-Q10 全 PASS/PASS+",
        "ahp_x3_hard_gate": "3/3 (100%) — AHP1/AHP2/AHP3 全 PASS+ (R1 0/3 FAIL 全线修复)",
        "main_gate_combined": "12.5/13 = 96.2% (R1 8.5/13 = 65.4%, +4.0 pts, +30.8%)",
        "bonus_q11_to_q14": "3.5/4 strict — Q11/Q12/Q14 PASS/PASS+ + Q13 PARTIAL(0.5, ARMCD 同 R1 regression)",
        "strict_total": "16.0/17 = 94.1% (R1 12.0/17 = 70.6%, +4.0 pts, +23.5%)",
        "double_gate_decision": "PASS ✓✓ — Q1-Q10 9.5 ≥ 7 ✓ + AHP 3 ≥ 2 ✓"
      },
      "r2_v6_effectiveness": {
        "ahp_v1_lbclinsig": "PASS+ — 双核 grep 显性激活 (v6 A1 post-13th-reviewer fix) + LBCLSIG typo 识破 + 无编 C-code",
        "ahp_v2_trial_level_sae": "PASS+ — 显式 bu-she aggregate table + AESER/AESHOSP/AESLIFE/AESDTH/AESDISAB/AESCONG/AESMIE 6 子 + ADaM/CSR/RG 三层 + USUBJID=NULL 否认",
        "ahp_v3_pf_deprecated": "PASS+ — 首句 PF yi deprecated + PF to GF+BE+BS+RELSPEC 迁移 + 无 PF 前缀臆造 + 无末尾 irony",
        "q4_multiscenario_fix": "EFFECTIVE R1 PARTIAL to R2 PASS+",
        "q7_dtf_adam_only_fix": "EFFECTIVE R1 PARTIAL to R2 PASS",
        "q8_co2e_fix": "EFFECTIVE R1 PARTIAL to R2 PASS+ (C66742 4 值 + C66767 Non-Ext + AETERM MedDRA via AEDECOD 分层 全修)"
      },
      "r2_new_findings_for_v7_carry_over": {
        "q1_gfgene_regression_HIGH": "Exp 列用 GFGENE (CO-4 L102 禁止臆造清单第 4 项), 末尾警告 GFLOC/GFVARIANT 却未提 GFGENE = self-contradiction. v7: 强化 GF Exp 清单 hard anchor",
        "q13_armcd_rule_regression_HIGH": "(b) ARMCD=NOTASSGN + ARMNRS C66770 (应 C142179) 同 R1 defect. v6 CO-4 未覆盖 ARMCD-null 规则. v7: 补 ARMCD 必 null 时 ARMNRS 全称 + CT C142179 锚"
      },
      "r2_answer_files_location": "dev/evidence/smoke_v4_r2_answers/ (17 files)",
      "r2_results_summary_file": "dev/evidence/smoke_v4_r2_results.md",
      "rule_d_14th_slot_reviewer_status": "COMPLETE 2026-04-23 PM (oh-my-claudecode:verifier, 独审 R2 scoring + v6 effectiveness + v7 carry-over)",
      "rule_d_14th_reviewer_verdict": {
        "overall": "APPROVE",
        "confidence": "high",
        "blockers": 0,
        "q1_verdict_agreement": "PARTIAL 0.5 confirm (confidence 88) — GFGENE FAIL 判据命中但无绝对阻断, 四子问+域+Req 全对 → PARTIAL",
        "q13_verdict_agreement": "PARTIAL 0.5 confirm (confidence 92) — SMOKE_V4 L818 明文 ARMCD NOTASSGN = FAIL + ARMNRS C66770 错 codelist (应 C142179)",
        "ahp_verdict_agreement": "全 PASS+ confirm — AHP1 (93) / AHP2 (91) / AHP3 (94), R1 FAIL pattern 全消除, mechanism-level 修复",
        "gate_arithmetic_verified": "Q1-Q10 9.5/10 ≥ 7 ✓ + AHP 3/3 ≥ 2 ✓ + strict 16.0/17 = 94.1% 独立核算与主 session 完全一致",
        "v6_true_fix_vs_surface": "AHP-V2/V3 真修 (structural invariant); AHP-V1 近真修 (置信 78, 有假阴性边界风险)",
        "disagreement_with_13th_reviewer": "AHP-V1 置信 78 (14th) vs 90 (13th). 14th 对 attention gap false-negative 风险判断更保守",
        "gap_risks": [
          "Q1 regression not blocked by v6 CO-4 (medium risk, non-blocking)",
          "Q13 ARMCD-null gap v6 未覆盖 (medium risk, v7 必补)",
          "AHP-V1 false-negative 边界 (low risk, R2 未触发)"
        ],
        "v7_priority_items": {
          "HIGH_x_2": [
            "Q1 GF Exp 正向清单 (正向比负向更有效)",
            "Q13 ARMCD-null + ARMNRS 全称 + C142179 锚"
          ],
          "MEDIUM_x_2": [
            "未具体列 — 见 r2_14th_reviewer.md"
          ],
          "LOW_x_1": [
            "AHP-V1 文案精化降低假阴性风险"
          ]
        },
        "report_path": "dev/evidence/r2_14th_reviewer.md"
      }
    },
    "next_action": "R2 COMPLETE 2026-04-23 PM: Gemini 双硬 gate 全过 (Q1-Q10 9.5/10 + AHP 3/3), strict 16.0/17 (94.1%), main gate 12.5/13 (96.2%). **Gemini Phase 4 Gate 完全闭合 + Phase 5 ready**. AHP × 3 从 R1 0/3 FAIL to R2 3/3 PASS+ 全线修复 = v6 CO-5 最大成就. 已派 14th slot reviewer (oh-my-claudecode:verifier) 独审. 回收后决策 (a) v7 iteration schedule (Q1 GFGENE + Q13 ARMCD-null 两 HIGH regression), (b) Phase 5 RETROSPECTIVE 合流 timing. 仍等 NotebookLM P3.9 拉齐后跨 4 平台启 Phase 5 合流."
  },
  "platform_specific_constraints": {
    "P11_single_batch_upload": true,
    "P12_tail_recall_validation_required": true,
    "expected_batches": 1,
    "context_window_tokens": 1000000,
    "expected_core_tokens": "~513K",
    "expected_core_plus_terminology_tokens": "~713K",
    "share_model_phase1_discovered": "private/link/public/workspace (2025-09 onwards)",
    "publish_decision_default": "personal_use_or_link_share_with_colleagues",
    "publish_decision_can_expand_to": "link share with colleagues (定向/内部传播), 或 Workspace 组织内",
    "publish_scope_semantics_clarification_2026-04-20": "用户澄清: Gemini 的'公开' ≠ Store 全网广播, 而是'分享链接给同事'. A/B 不含陌生公开受众语气题, 仅同事/内部用户.",
    "use_case_strategy": "both_precise_query_and_cross_domain_comparison",
    "terminology_inline_strategy": "high_frequency_injected_tail_position",
    "domain_coverage_strategy": "full_equal_weight",
    "rag_benchmarks_discovered_phase1": {
      "recall_at_530k_tokens": "100%",
      "recall_at_1m_tokens": ">99.7%",
      "recall_benchmark_source": "Gemini 1.5 Technical Report arxiv 2403.05530",
      "files_per_gem": 10,
      "mb_per_file": 100
    }
  },
  "phase_5_sign_off": {
    "date": "2026-04-24",
    "status": "SIGNED_OFF",
    "evidence": "ai_platforms/retrospectives/PHASE5_RETROSPECTIVE.md v1.0 FINAL (post 28th Rule D reviewer oh-my-claudecode:critic CONDITIONAL_PASS 82 + 5 blocking fix applied)",
    "daisy_ack": "2026-04-24 verbal"
  },
  "v1_1_rebuild": {
    "date": "2026-05-15",
    "status": "COMPLETE",
    "trigger": "06 deep verification branch fixes (43 KB files +1,405/-234 lines, DI domain added)",
    "evidence": ".work/07_release_v1_1/{PLAN,RETROSPECTIVE}.md + evidence/{diff_summary,rule_d_review}.md",
    "release_tag": "v1.1 + v1.1-company-release",
    "rule_d_verdict": "oh-my-claudecode:verifier ALL_PASS 5/5 (Rule A 20 grep hits zero miss + cross-platform delta oracle consistent)"
  },
  "v1_1_audit_pass": {
    "date": "2026-05-16",
    "status": "COMPLETE",
    "trigger": "User push-back (1st: 'all 4 platform prompts + resources deeply reviewed?'; 2nd: 'any leftover tests?')",
    "evidence": ".work/07_release_v1_1/evidence/{rule_a_n20_audit,gemini_04_audit,known_limitations_reconcile}.md",
    "fixes_applied": "system_prompt 63→64 + 23 meta inheritance + KNOWN_LIMITATIONS §0 Tier B + line 141 ARMNRS C66770→C142179 typo (Gemini) + gemini 04 PC-PP RELREC §1.24b + DI in §8.5 + §9.5 FAQ + SYNC_BOARD stale header",
    "rule_a_extended": "100% PASS (124/124 grep probes, N=20 KB × 4 platforms + 22 bucket × 2 samples)"
  }
}
