{"atom_id": "ig34_p0116_a001", "source": "SDTMIG v3.4 (no header footer).pdf", "source_short": "ig34", "page": 116, "atom_index_on_page": 1, "atom_type": "HEADING", "verbatim": "Subject 56789003", "parent_section": "§6.1.3.3 [Exposure/Exposure as Collected Examples]", "heading_level": 5, "sibling_index": null, "cross_refs": null, "figure_ref": null, "table_ref": null, "prompt_version": "P0_writer_pdf_v1.2+TOC_anchor+R1-R14"}
{"atom_id": "ig34_p0116_a002", "source": "SDTMIG v3.4 (no header footer).pdf", "source_short": "ig34", "page": 116, "atom_index_on_page": 2, "atom_type": "TABLE_HEADER", "verbatim": "| Period 1 | | | | | Period 2 | | | | |", "parent_section": "§6.1.3.3 [Exposure/Exposure as Collected Examples]", "heading_level": null, "sibling_index": null, "cross_refs": null, "figure_ref": null, "table_ref": "EC dataset", "prompt_version": "P0_writer_pdf_v1.2+TOC_anchor+R1-R14"}
{"atom_id": "ig34_p0116_a003", "source": "SDTMIG v3.4 (no header footer).pdf", "source_short": "ig34", "page": 116, "atom_index_on_page": 3, "atom_type": "TABLE_HEADER", "verbatim": "| Day | Bottle 1 # of capsules | Bottle 2 # of tablets | Start Date/Time | End Date/Time | Day | Bottle 1 # of capsules | Bottle 2 # of tablets | Start Date/Time | End Date/Time |", "parent_section": "§6.1.3.3 [Exposure/Exposure as Collected Examples]", "heading_level": null, "sibling_index": null, "cross_refs": null, "figure_ref": null, "table_ref": "EC dataset", "prompt_version": "P0_writer_pdf_v1.2+TOC_anchor+R1-R14"}
{"atom_id": "ig34_p0116_a004", "source": "SDTMIG v3.4 (no header footer).pdf", "source_short": "ig34", "page": 116, "atom_index_on_page": 4, "atom_type": "TABLE_ROW", "verbatim": "| 1 | 1 | 1 | 2002-07-03T07:30 | 2002-07-03T07:30 | 1 | 1 | 1 | 2002-07-11T07:30 | 2002-07-11T07:30 |", "parent_section": "§6.1.3.3 [Exposure/Exposure as Collected Examples]", "heading_level": null, "sibling_index": null, "cross_refs": null, "figure_ref": null, "table_ref": "EC dataset", "prompt_version": "P0_writer_pdf_v1.2+TOC_anchor+R1-R14"}
{"atom_id": "ig34_p0116_a005", "source": "SDTMIG v3.4 (no header footer).pdf", "source_short": "ig34", "page": 116, "atom_index_on_page": 5, "atom_type": "TABLE_ROW", "verbatim": "| 2 | 1 | 1 | 2002-07-04T07:24 | 2002-07-04T07:24 | 2 | 1 | 1 | 2002-07-12T07:43 | 2002-07-12T07:43 |", "parent_section": "§6.1.3.3 [Exposure/Exposure as Collected Examples]", "heading_level": null, "sibling_index": null, "cross_refs": null, "figure_ref": null, "table_ref": "EC dataset", "prompt_version": "P0_writer_pdf_v1.2+TOC_anchor+R1-R14"}
{"atom_id": "ig34_p0116_a006", "source": "SDTMIG v3.4 (no header footer).pdf", "source_short": "ig34", "page": 116, "atom_index_on_page": 6, "atom_type": "TABLE_ROW", "verbatim": "| 3 | 1 | 1 | 2002-07-05T07:24 | 2002-07-05T07:24 | 3 | 1 | 1 | 2002-07-13T07:38 | 2002-07-13T07:38 |", "parent_section": "§6.1.3.3 [Exposure/Exposure as Collected Examples]", "heading_level": null, "sibling_index": null, "cross_refs": null, "figure_ref": null, "table_ref": "EC dataset", "prompt_version": "P0_writer_pdf_v1.2+TOC_anchor+R1-R14"}
{"atom_id": "ig34_p0116_a007", "source": "SDTMIG v3.4 (no header footer).pdf", "source_short": "ig34", "page": 116, "atom_index_on_page": 7, "atom_type": "SENTENCE", "verbatim": "The EC dataset shows administrations as collected.", "parent_section": "§6.1.3.3 [Exposure/Exposure as Collected Examples]", "heading_level": null, "sibling_index": null, "cross_refs": null, "figure_ref": null, "table_ref": null, "prompt_version": "P0_writer_pdf_v1.2+TOC_anchor+R1-R14"}
{"atom_id": "ig34_p0116_a008", "source": "SDTMIG v3.4 (no header footer).pdf", "source_short": "ig34", "page": 116, "atom_index_on_page": 8, "atom_type": "CODE_LITERAL", "verbatim": "ec.xpt", "parent_section": "§6.1.3.3 [Exposure/Exposure as Collected Examples]", "heading_level": null, "sibling_index": null, "cross_refs": null, "figure_ref": null, "table_ref": null, "prompt_version": "P0_writer_pdf_v1.2+TOC_anchor+R1-R14"}
{"atom_id": "ig34_p0116_a009", "source": "SDTMIG v3.4 (no header footer).pdf", "source_short": "ig34", "page": 116, "atom_index_on_page": 9, "atom_type": "TABLE_HEADER", "verbatim": "| Row | STUDYID | DOMAIN | USUBJID | ECSEQ | ECTRT | ECPREP | ECOCCUR | ECDOSE | ECDOSEU | ECDOSFRM | ECDOSFRQ | ECROUTE | EPOCH | ECSTDTC | ECENDTC | ECSTDY | ECENDY | ECTPT | ECELTM | ECTRREF |", "parent_section": "§6.1.3.3 [Exposure/Exposure as Collected Examples]", "heading_level": null, "sibling_index": null, "cross_refs": null, "figure_ref": null, "table_ref": "ec.xpt", "prompt_version": "P0_writer_pdf_v1.2+TOC_anchor+R1-R14"}
{"atom_id": "ig34_p0116_a010", "source": "SDTMIG v3.4 (no header footer).pdf", "source_short": "ig34", "page": 116, "atom_index_on_page": 10, "atom_type": "TABLE_ROW", "verbatim": "| 1 | 56789 | EC | 56789001 | 1 | BOTTLE | Y | Y | 1 | TABLET, COATED | TABLET, COATED | QD | ORAL | TREATMENT | 2002-07-01T07:30 | 2002-07-01T07:30 | 1 | 1 | 30 MINUTES PRIOR | -PT30M | STD BREAKFAST |", "parent_section": "§6.1.3.3 [Exposure/Exposure as Collected Examples]", "heading_level": null, "sibling_index": null, "cross_refs": null, "figure_ref": null, "table_ref": "ec.xpt", "prompt_version": "P0_writer_pdf_v1.2+TOC_anchor+R1-R14"}
{"atom_id": "ig34_p0116_a011", "source": "SDTMIG v3.4 (no header footer).pdf", "source_short": "ig34", "page": 116, "atom_index_on_page": 11, "atom_type": "TABLE_ROW", "verbatim": "| 2 | 56789 | EC | 56789001 | 2 | BOTTLE | Y | Y | 1 | TABLET, COATED | TABLET, COATED | QD | ORAL | TREATMENT | 2002-07-01T07:30 | 2002-07-01T07:30 | 1 | 1 | 30 MINUTES PRIOR | -PT30M | STD BREAKFAST |", "parent_section": "§6.1.3.3 [Exposure/Exposure as Collected Examples]", "heading_level": null, "sibling_index": null, "cross_refs": null, "figure_ref": null, "table_ref": "ec.xpt", "prompt_version": "P0_writer_pdf_v1.2+TOC_anchor+R1-R14"}
{"atom_id": "ig34_p0116_a012", "source": "SDTMIG v3.4 (no header footer).pdf", "source_short": "ig34", "page": 116, "atom_index_on_page": 12, "atom_type": "TABLE_ROW", "verbatim": "| 3 | 56789 | EC | 56789001 | 3 | BOTTLE | Y | Y | 1 | TABLET, COATED | TABLET, COATED | QD | ORAL | TREATMENT | 2002-07-01T07:30 | 2002-07-01T07:30 | 1 | 1 | 30 MINUTES PRIOR | -PT30M | STD BREAKFAST |", "parent_section": "§6.1.3.3 [Exposure/Exposure as Collected Examples]", "heading_level": null, "sibling_index": null, "cross_refs": null, "figure_ref": null, "table_ref": "ec.xpt", "prompt_version": "P0_writer_pdf_v1.2+TOC_anchor+R1-R14"}
{"atom_id": "ig34_p0116_a013", "source": "SDTMIG v3.4 (no header footer).pdf", "source_short": "ig34", "page": 116, "atom_index_on_page": 13, "atom_type": "TABLE_ROW", "verbatim": "| 4 | 56789 | EC | 56789001 | 4 | BOTTLE | Y | Y | 1 | TABLET, COATED | TABLET, COATED | QD | ORAL | TREATMENT | 2002-07-02T07:30 | 2002-07-02T07:30 | 2 | 2 | 30 MINUTES PRIOR | -PT30M | STD BREAKFAST |", "parent_section": "§6.1.3.3 [Exposure/Exposure as Collected Examples]", "heading_level": null, "sibling_index": null, "cross_refs": null, "figure_ref": null, "table_ref": "ec.xpt", "prompt_version": "P0_writer_pdf_v1.2+TOC_anchor+R1-R14"}
{"atom_id": "ig34_p0116_a014", "source": "SDTMIG v3.4 (no header footer).pdf", "source_short": "ig34", "page": 116, "atom_index_on_page": 14, "atom_type": "TABLE_ROW", "verbatim": "| 5 | 56789 | EC | 56789001 | 5 | BOTTLE | Y | Y | 1 | TABLET, COATED | TABLET, COATED | QD | ORAL | TREATMENT | 2002-07-02T07:30 | 2002-07-02T07:30 | 2 | 2 | 30 MINUTES PRIOR | -PT30M | STD BREAKFAST |", "parent_section": "§6.1.3.3 [Exposure/Exposure as Collected Examples]", "heading_level": null, "sibling_index": null, "cross_refs": null, "figure_ref": null, "table_ref": "ec.xpt", "prompt_version": "P0_writer_pdf_v1.2+TOC_anchor+R1-R14"}
{"atom_id": "ig34_p0116_a015", "source": "SDTMIG v3.4 (no header footer).pdf", "source_short": "ig34", "page": 116, "atom_index_on_page": 15, "atom_type": "TABLE_ROW", "verbatim": "| 6 | 56789 | EC | 56789001 | 6 | BOTTLE | Y | Y | 1 | TABLET, COATED | TABLET, COATED | QD | ORAL | TREATMENT | 2002-07-03T07:32 | 2002-07-03T07:32 | 3 | 3 | 30 MINUTES PRIOR | -PT30M | STD BREAKFAST |", "parent_section": "§6.1.3.3 [Exposure/Exposure as Collected Examples]", "heading_level": null, "sibling_index": null, "cross_refs": null, "figure_ref": null, "table_ref": "ec.xpt", "prompt_version": "P0_writer_pdf_v1.2+TOC_anchor+R1-R14"}
{"atom_id": "ig34_p0116_a016", "source": "SDTMIG v3.4 (no header footer).pdf", "source_short": "ig34", "page": 116, "atom_index_on_page": 16, "atom_type": "TABLE_ROW", "verbatim": "| 7 | 56789 | EC | 56789001 | 7 | BOTTLE | Y | Y | 1 | TABLET, COATED | TABLET, COATED | QD | ORAL | TREATMENT | 2002-07-03T07:30 | 2002-07-03T07:30 | 3 | 3 | 30 MINUTES PRIOR | -PT30M | STD BREAKFAST |", "parent_section": "§6.1.3.3 [Exposure/Exposure as Collected Examples]", "heading_level": null, "sibling_index": null, "cross_refs": null, "figure_ref": null, "table_ref": "ec.xpt", "prompt_version": "P0_writer_pdf_v1.2+TOC_anchor+R1-R14"}
{"atom_id": "ig34_p0116_a017", "source": "SDTMIG v3.4 (no header footer).pdf", "source_short": "ig34", "page": 116, "atom_index_on_page": 17, "atom_type": "TABLE_ROW", "verbatim": "| 8 | 56789 | EC | 56789001 | 8 | BOTTLE | Y | Y | 1 | TABLET, COATED | TABLET, COATED | QD | ORAL | TREATMENT | 2002-07-04T07:30 | 2002-07-04T07:30 | 4 | 4 | 30 MINUTES PRIOR | -PT30M | STD BREAKFAST |", "parent_section": "§6.1.3.3 [Exposure/Exposure as Collected Examples]", "heading_level": null, "sibling_index": null, "cross_refs": null, "figure_ref": null, "table_ref": "ec.xpt", "prompt_version": "P0_writer_pdf_v1.2+TOC_anchor+R1-R14"}
{"atom_id": "ig34_p0116_a018", "source": "SDTMIG v3.4 (no header footer).pdf", "source_short": "ig34", "page": 116, "atom_index_on_page": 18, "atom_type": "TABLE_ROW", "verbatim": "| 9 | 56789 | EC | 56789001 | 9 | BOTTLE | Y | Y | 1 | TABLET, COATED | TABLET, COATED | QD | ORAL | TREATMENT | 2002-07-08T07:30 | 2002-07-08T07:30 | 8 | 8 | 30 MINUTES PRIOR | -PT30M | STD BREAKFAST |", "parent_section": "§6.1.3.3 [Exposure/Exposure as Collected Examples]", "heading_level": null, "sibling_index": null, "cross_refs": null, "figure_ref": null, "table_ref": "ec.xpt", "prompt_version": "P0_writer_pdf_v1.2+TOC_anchor+R1-R14"}
{"atom_id": "ig34_p0116_a019", "source": "SDTMIG v3.4 (no header footer).pdf", "source_short": "ig34", "page": 116, "atom_index_on_page": 19, "atom_type": "TABLE_ROW", "verbatim": "| 10 | 56789 | EC | 56789001 | 10 | BOTTLE | Y | Y | 1 | TABLET, COATED | TABLET, COATED | QD | ORAL | TREATMENT | 2002-07-10T07:30 | 2002-07-10T07:30 | 10 | 10 | 30 MINUTES PRIOR | -PT30M | STD BREAKFAST |", "parent_section": "§6.1.3.3 [Exposure/Exposure as Collected Examples]", "heading_level": null, "sibling_index": null, "cross_refs": null, "figure_ref": null, "table_ref": "ec.xpt", "prompt_version": "P0_writer_pdf_v1.2+TOC_anchor+R1-R14"}
{"atom_id": "ig34_p0116_a020", "source": "SDTMIG v3.4 (no header footer).pdf", "source_short": "ig34", "page": 116, "atom_index_on_page": 20, "atom_type": "TABLE_ROW", "verbatim": "| 11 | 56789 | EC | 56789001 | 11 | BOTTLE | Y | Y | 1 | TABLET, CAPSULE | TABLET, CAPSULE | QD | ORAL | TREATMENT | 2002-07-11T07:34 | 2002-07-11T07:34 | 11 | 11 | 30 MINUTES PRIOR | -PT30M | STD BREAKFAST |", "parent_section": "§6.1.3.3 [Exposure/Exposure as Collected Examples]", "heading_level": null, "sibling_index": null, "cross_refs": null, "figure_ref": null, "table_ref": "ec.xpt", "prompt_version": "P0_writer_pdf_v1.2+TOC_anchor+R1-R14"}
{"atom_id": "ig34_p0116_a021", "source": "SDTMIG v3.4 (no header footer).pdf", "source_short": "ig34", "page": 116, "atom_index_on_page": 21, "atom_type": "TABLE_ROW", "verbatim": "| 12 | 56789 | EC | 56789001 | 12 | BOTTLE | Y | Y | 1 | TABLET, COATED | TABLET, COATED | QD | ORAL | TREATMENT | 2002-07-11T07:30 | 2002-07-11T07:30 | 11 | 11 | 30 MINUTES PRIOR | -PT30M | STD BREAKFAST |", "parent_section": "§6.1.3.3 [Exposure/Exposure as Collected Examples]", "heading_level": null, "sibling_index": null, "cross_refs": null, "figure_ref": null, "table_ref": "ec.xpt", "prompt_version": "P0_writer_pdf_v1.2+TOC_anchor+R1-R14"}
{"atom_id": "ig34_p0116_a022", "source": "SDTMIG v3.4 (no header footer).pdf", "source_short": "ig34", "page": 116, "atom_index_on_page": 22, "atom_type": "TABLE_ROW", "verbatim": "| 13 | 56789 | EC | 56789001 | 13 | BOTTLE | Y | Y | 1 | TABLET, CAPSULE | TABLET, CAPSULE | QD | ORAL | TREATMENT | 2002-07-11T07:34 | 2002-07-11T07:34 | 11 | 11 | 30 MINUTES PRIOR | -PT30M | STD BREAKFAST |", "parent_section": "§6.1.3.3 [Exposure/Exposure as Collected Examples]", "heading_level": null, "sibling_index": null, "cross_refs": null, "figure_ref": null, "table_ref": "ec.xpt", "prompt_version": "P0_writer_pdf_v1.2+TOC_anchor+R1-R14"}
{"atom_id": "ig34_p0116_a023", "source": "SDTMIG v3.4 (no header footer).pdf", "source_short": "ig34", "page": 116, "atom_index_on_page": 23, "atom_type": "TABLE_ROW", "verbatim": "| 14 | 56789 | EC | 56789001 | 14 | BOTTLE | Y | Y | 1 | TABLET, COATED | TABLET, COATED | QD | ORAL | TREATMENT | 2002-07-12T07:30 | 2002-07-12T07:30 | 12 | 12 | 30 MINUTES PRIOR | -PT30M | STD BREAKFAST |", "parent_section": "§6.1.3.3 [Exposure/Exposure as Collected Examples]", "heading_level": null, "sibling_index": null, "cross_refs": null, "figure_ref": null, "table_ref": "ec.xpt", "prompt_version": "P0_writer_pdf_v1.2+TOC_anchor+R1-R14"}
{"atom_id": "ig34_p0116_a024", "source": "SDTMIG v3.4 (no header footer).pdf", "source_short": "ig34", "page": 116, "atom_index_on_page": 24, "atom_type": "TABLE_ROW", "verbatim": "| 15 | 56789 | EC | 56789001 | 15 | BOTTLE | Y | Y | 1 | TABLET, CAPSULE | TABLET, CAPSULE | QD | ORAL | TREATMENT | 2002-07-12T07:24 | 2002-07-12T07:24 | 12 | 12 | 30 MINUTES PRIOR | -PT30M | STD BREAKFAST |", "parent_section": "§6.1.3.3 [Exposure/Exposure as Collected Examples]", "heading_level": null, "sibling_index": null, "cross_refs": null, "figure_ref": null, "table_ref": "ec.xpt", "prompt_version": "P0_writer_pdf_v1.2+TOC_anchor+R1-R14"}
{"atom_id": "ig34_p0116_a025", "source": "SDTMIG v3.4 (no header footer).pdf", "source_short": "ig34", "page": 116, "atom_index_on_page": 25, "atom_type": "TABLE_ROW", "verbatim": "| 16 | 56789 | EC | 56789001 | 16 | BOTTLE | Y | Y | 1 | TABLET, COATED | TABLET, COATED | QD | ORAL | TREATMENT | 2002-07-12T07:30 | 2002-07-12T07:30 | 12 | 12 | 30 MINUTES PRIOR | -PT30M | STD BREAKFAST |", "parent_section": "§6.1.3.3 [Exposure/Exposure as Collected Examples]", "heading_level": null, "sibling_index": null, "cross_refs": null, "figure_ref": null, "table_ref": "ec.xpt", "prompt_version": "P0_writer_pdf_v1.2+TOC_anchor+R1-R14"}
{"atom_id": "ig34_p0116_a026", "source": "SDTMIG v3.4 (no header footer).pdf", "source_short": "ig34", "page": 116, "atom_index_on_page": 26, "atom_type": "TABLE_ROW", "verbatim": "| 17 | 56789 | EC | 56789001 | 17 | BOTTLE | Y | Y | 1 | TABLET, COATED | TABLET, COATED | QD | ORAL | TREATMENT | 2002-07-04T07:24 | 2002-07-04T07:24 | 4 | 4 | 30 MINUTES PRIOR | -PT30M | STD BREAKFAST |", "parent_section": "§6.1.3.3 [Exposure/Exposure as Collected Examples]", "heading_level": null, "sibling_index": null, "cross_refs": null, "figure_ref": null, "table_ref": "ec.xpt", "prompt_version": "P0_writer_pdf_v1.2+TOC_anchor+R1-R14"}
{"atom_id": "ig34_p0116_a027", "source": "SDTMIG v3.4 (no header footer).pdf", "source_short": "ig34", "page": 116, "atom_index_on_page": 27, "atom_type": "TABLE_ROW", "verbatim": "| 18 | 56789 | EC | 56789001 | 18 | BOTTLE | Y | Y | 1 | TABLET, COATED | TABLET, COATED | QD | ORAL | TREATMENT | 2002-07-05T07:24 | 2002-07-05T07:24 | 5 | 5 | 30 MINUTES PRIOR | -PT30M | STD BREAKFAST |", "parent_section": "§6.1.3.3 [Exposure/Exposure as Collected Examples]", "heading_level": null, "sibling_index": null, "cross_refs": null, "figure_ref": null, "table_ref": "ec.xpt", "prompt_version": "P0_writer_pdf_v1.2+TOC_anchor+R1-R14"}
{"atom_id": "ig34_p0116_a028", "source": "SDTMIG v3.4 (no header footer).pdf", "source_short": "ig34", "page": 116, "atom_index_on_page": 28, "atom_type": "TABLE_ROW", "verbatim": "| 19 | 56789 | EC | 56789001 | 19 | BOTTLE | Y | Y | 1 | TABLET, CAPSULE | TABLET, CAPSULE | QD | ORAL | TREATMENT | 2002-07-11T07:30 | 2002-07-11T07:30 | 11 | 11 | 30 MINUTES PRIOR | -PT30M | STD BREAKFAST |", "parent_section": "§6.1.3.3 [Exposure/Exposure as Collected Examples]", "heading_level": null, "sibling_index": null, "cross_refs": null, "figure_ref": null, "table_ref": "ec.xpt", "prompt_version": "P0_writer_pdf_v1.2+TOC_anchor+R1-R14"}
{"atom_id": "ig34_p0116_a029", "source": "SDTMIG v3.4 (no header footer).pdf", "source_short": "ig34", "page": 116, "atom_index_on_page": 29, "atom_type": "TABLE_ROW", "verbatim": "| 20 | 56789 | EC | 56789001 | 20 | BOTTLE | Y | Y | 1 | TABLET, COATED | TABLET, COATED | QD | ORAL | TREATMENT | 2002-07-11T07:30 | 2002-07-11T07:30 | 11 | 11 | 30 MINUTES PRIOR | -PT30M | STD BREAKFAST |", "parent_section": "§6.1.3.3 [Exposure/Exposure as Collected Examples]", "heading_level": null, "sibling_index": null, "cross_refs": null, "figure_ref": null, "table_ref": "ec.xpt", "prompt_version": "P0_writer_pdf_v1.2+TOC_anchor+R1-R14"}
{"atom_id": "ig34_p0116_a030", "source": "SDTMIG v3.4 (no header footer).pdf", "source_short": "ig34", "page": 116, "atom_index_on_page": 30, "atom_type": "TABLE_ROW", "verbatim": "| 21 | 56789 | EC | 56789001 | 21 | BOTTLE | Y | Y | 1 | TABLET, COATED | TABLET, COATED | QD | ORAL | TREATMENT | 2002-07-12T07:43 | 2002-07-12T07:43 | 12 | 12 | 30 MINUTES PRIOR | -PT30M | STD BREAKFAST |", "parent_section": "§6.1.3.3 [Exposure/Exposure as Collected Examples]", "heading_level": null, "sibling_index": null, "cross_refs": null, "figure_ref": null, "table_ref": "ec.xpt", "prompt_version": "P0_writer_pdf_v1.2+TOC_anchor+R1-R14"}
{"atom_id": "ig34_p0116_a031", "source": "SDTMIG v3.4 (no header footer).pdf", "source_short": "ig34", "page": 116, "atom_index_on_page": 31, "atom_type": "TABLE_ROW", "verbatim": "| 22 | 56789 | EC | 56789001 | 22 | BOTTLE | Y | Y | 1 | TABLET, COATED | TABLET, COATED | QD | ORAL | TREATMENT | 2002-07-12T07:43 | 2002-07-12T07:43 | 12 | 12 | 30 MINUTES PRIOR | -PT30M | STD BREAKFAST |", "parent_section": "§6.1.3.3 [Exposure/Exposure as Collected Examples]", "heading_level": null, "sibling_index": null, "cross_refs": null, "figure_ref": null, "table_ref": "ec.xpt", "prompt_version": "P0_writer_pdf_v1.2+TOC_anchor+R1-R14"}
{"atom_id": "ig34_p0117_a001", "source": "SDTMIG v3.4 (no header footer).pdf", "source_short": "ig34", "page": 117, "atom_index_on_page": 1, "atom_type": "TABLE_ROW", "verbatim": "| 23 | 56789 | EC | 56789003 | 11 | BOTTLE | Y | Y | 1 | TABLET, CAPSULE | TABLET, CAPSULE | QD | ORAL | TREATMENT | 2002-07-13T07:38 | 2002-07-13T07:38 | 13 | 13 | 30 MINUTES PRIOR | -PT30M | STD BREAKFAST |", "parent_section": "§6.1.3.3 [Exposure/Exposure as Collected Examples]", "heading_level": null, "sibling_index": null, "cross_refs": null, "figure_ref": null, "table_ref": "ec.xpt", "prompt_version": "P0_writer_pdf_v1.2+TOC_anchor+R1-R14"}
{"atom_id": "ig34_p0117_a002", "source": "SDTMIG v3.4 (no header footer).pdf", "source_short": "ig34", "page": 117, "atom_index_on_page": 2, "atom_type": "TABLE_ROW", "verbatim": "| 24 | 56789 | EC | 56789003 | 12 | BOTTLE | Y | Y | 1 | TABLET, COATED | TABLET, COATED | QD | ORAL | TREATMENT | 2002-07-13T07:38 | 2002-07-13T07:38 | 13 | 13 | 30 MINUTES PRIOR | -PT30M | STD BREAKFAST |", "parent_section": "§6.1.3.3 [Exposure/Exposure as Collected Examples]", "heading_level": null, "sibling_index": null, "cross_refs": null, "figure_ref": null, "table_ref": "ec.xpt", "prompt_version": "P0_writer_pdf_v1.2+TOC_anchor+R1-R14"}
{"atom_id": "ig34_p0117_a003", "source": "SDTMIG v3.4 (no header footer).pdf", "source_short": "ig34", "page": 117, "atom_index_on_page": 3, "atom_type": "SENTENCE", "verbatim": "The EX dataset shows the unblinded administrations.", "parent_section": "§6.1.3.3 [Exposure/Exposure as Collected Examples]", "heading_level": null, "sibling_index": null, "cross_refs": null, "figure_ref": null, "table_ref": null, "prompt_version": "P0_writer_pdf_v1.2+TOC_anchor+R1-R14"}
{"atom_id": "ig34_p0117_a004", "source": "SDTMIG v3.4 (no header footer).pdf", "source_short": "ig34", "page": 117, "atom_index_on_page": 4, "atom_type": "HEADING", "verbatim": "Example 7", "parent_section": "§6.1.3.3 [Exposure/Exposure as Collected Examples]", "heading_level": 5, "sibling_index": 7, "cross_refs": null, "figure_ref": null, "table_ref": null, "prompt_version": "P0_writer_pdf_v1.2+TOC_anchor+R1-R14"}
{"atom_id": "ig34_p0117_a005", "source": "SDTMIG v3.4 (no header footer).pdf", "source_short": "ig34", "page": 117, "atom_index_on_page": 5, "atom_type": "SENTENCE", "verbatim": "The study in this example involved weekly infusions of drug Z 10 mg/kg.", "parent_section": "§6.1.3.3 [Exposure/Exposure as Collected Examples]", "heading_level": null, "sibling_index": null, "cross_refs": null, "figure_ref": null, "table_ref": null, "prompt_version": "P0_writer_pdf_v1.2+TOC_anchor+R1-R14"}
{"atom_id": "ig34_p0117_a006", "source": "SDTMIG v3.4 (no header footer).pdf", "source_short": "ig34", "page": 117, "atom_index_on_page": 6, "atom_type": "SENTENCE", "verbatim": "If a subject experienced a dose-limiting toxicity (DLT), the intended dose could be reduced to 7.5 mg/kg.", "parent_section": "§6.1.3.3 [Exposure/Exposure as Collected Examples]", "heading_level": null, "sibling_index": null, "cross_refs": null, "figure_ref": null, "table_ref": null, "prompt_version": "P0_writer_pdf_v1.2+TOC_anchor+R1-R14"}
{"atom_id": "ig34_p0117_a007", "source": "SDTMIG v3.4 (no header footer).pdf", "source_short": "ig34", "page": 117, "atom_index_on_page": 7, "atom_type": "SENTENCE", "verbatim": "The example CRF below was for subject ABC123-0201, who weighed 55 kg.", "parent_section": "§6.1.3.3 [Exposure/Exposure as Collected Examples]", "heading_level": null, "sibling_index": null, "cross_refs": null, "figure_ref": null, "table_ref": null, "prompt_version": "P0_writer_pdf_v1.2+TOC_anchor+R1-R14"}
{"atom_id": "ig34_p0117_a008", "source": "SDTMIG v3.4 (no header footer).pdf", "source_short": "ig34", "page": 117, "atom_index_on_page": 8, "atom_type": "SENTENCE", "verbatim": "The CRF shows that:", "parent_section": "§6.1.3.3 [Exposure/Exposure as Collected Examples]", "heading_level": null, "sibling_index": null, "cross_refs": null, "figure_ref": null, "table_ref": null, "prompt_version": "P0_writer_pdf_v1.2+TOC_anchor+R1-R14"}
{"atom_id": "ig34_p0117_a009", "source": "SDTMIG v3.4 (no header footer).pdf", "source_short": "ig34", "page": 117, "atom_index_on_page": 9, "atom_type": "LIST_ITEM", "verbatim": "The subject's first administration of drug Z was on 2009-02-13; the intended dose was 10 mg/kg, but the actual amount given was 99 mL at 5.5 mL/mL, so the actual dose was 9.9 mg/kg.", "parent_section": "§6.1.3.3 [Exposure/Exposure as Collected Examples]", "heading_level": null, "sibling_index": null, "cross_refs": null, "figure_ref": null, "table_ref": null, "prompt_version": "P0_writer_pdf_v1.2+TOC_anchor+R1-R14"}
{"atom_id": "ig34_p0117_a010", "source": "SDTMIG v3.4 (no header footer).pdf", "source_short": "ig34", "page": 117, "atom_index_on_page": 10, "atom_type": "LIST_ITEM", "verbatim": "The subject's second administration of drug Z occurred on 2009-02-20; the intended dose was reduced to 7.5 mg/kg due to dose-limiting toxicity, and the infusion was stopped early due to an injection site reaction.", "parent_section": "§6.1.3.3 [Exposure/Exposure as Collected Examples]", "heading_level": null, "sibling_index": null, "cross_refs": null, "figure_ref": null, "table_ref": null, "prompt_version": "P0_writer_pdf_v1.2+TOC_anchor+R1-R14"}
{"atom_id": "ig34_p0117_a011", "source": "SDTMIG v3.4 (no header footer).pdf", "source_short": "ig34", "page": 117, "atom_index_on_page": 11, "atom_type": "LIST_ITEM", "verbatim": "However, the actual amount given was 35 mL at a concentration of 4.12 mg/mL, so the calculated actual dose was 2.6 mg/kg.", "parent_section": "§6.1.3.3 [Exposure/Exposure as Collected Examples]", "heading_level": null, "sibling_index": null, "cross_refs": null, "figure_ref": null, "table_ref": null, "prompt_version": "P0_writer_pdf_v1.2+TOC_anchor+R1-R14"}
{"atom_id": "ig34_p0117_a012", "source": "SDTMIG v3.4 (no header footer).pdf", "source_short": "ig34", "page": 117, "atom_index_on_page": 12, "atom_type": "LIST_ITEM", "verbatim": "The subject's third administration was intended to occur on 2009-02-27; the intended dose was 7.5 mg/kg but, due to a personal reason, the administration did not occur.", "parent_section": "§6.1.3.3 [Exposure/Exposure as Collected Examples]", "heading_level": null, "sibling_index": null, "cross_refs": null, "figure_ref": null, "table_ref": null, "prompt_version": "P0_writer_pdf_v1.2+TOC_anchor+R1-R14"}
{"atom_id": "ig34_p0118_a001", "source": "SDTMIG v3.4 (no header footer).pdf", "source_short": "ig34", "page": 118, "atom_index_on_page": 1, "atom_type": "TABLE_HEADER", "verbatim": "| Visit | 1 | 2 | 3 |", "parent_section": "§6.1.3.3 [Exposure/Exposure as Collected Examples]", "heading_level": null, "sibling_index": null, "cross_refs": null, "figure_ref": null, "table_ref": "CRF example", "prompt_version": "P0_writer_pdf_v1.2+TOC_anchor+R1-R14"}
{"atom_id": "ig34_p0118_a002", "source": "SDTMIG v3.4 (no header footer).pdf", "source_short": "ig34", "page": 118, "atom_index_on_page": 2, "atom_type": "TABLE_HEADER", "verbatim": "| Intended Dose | 10 mg/kg | 7.5 mg/kg | 10 mg/kg | 7.5 mg/kg |", "parent_section": "§6.1.3.3 [Exposure/Exposure as Collected Examples]", "heading_level": null, "sibling_index": null, "cross_refs": null, "figure_ref": null, "table_ref": "CRF example", "prompt_version": "P0_writer_pdf_v1.2+TOC_anchor+R1-R14"}
{"atom_id": "ig34_p0118_a003", "source": "SDTMIG v3.4 (no header footer).pdf", "source_short": "ig34", "page": 118, "atom_index_on_page": 3, "atom_type": "TABLE_ROW", "verbatim": "| Reason for Dose Adjustment | Dose-limiting toxicity | Dose-limiting toxicity | Dose-limiting toxicity |", "parent_section": "§6.1.3.3 [Exposure/Exposure as Collected Examples]", "heading_level": null, "sibling_index": null, "cross_refs": null, "figure_ref": null, "table_ref": "CRF example", "prompt_version": "P0_writer_pdf_v1.2+TOC_anchor+R1-R14"}
{"atom_id": "ig34_p0118_a004", "source": "SDTMIG v3.4 (no header footer).pdf", "source_short": "ig34", "page": 118, "atom_index_on_page": 4, "atom_type": "TABLE_ROW", "verbatim": "| Dose Administered | Yes | Yes | No |", "parent_section": "§6.1.3.3 [Exposure/Exposure as Collected Examples]", "heading_level": null, "sibling_index": null, "cross_refs": null, "figure_ref": null, "table_ref": "CRF example", "prompt_version": "P0_writer_pdf_v1.2+TOC_anchor+R1-R14"}
{"atom_id": "ig34_p0118_a005", "source": "SDTMIG v3.4 (no header footer).pdf", "source_short": "ig34", "page": 118, "atom_index_on_page": 5, "atom_type": "TABLE_ROW", "verbatim": "| | | | If no, give reason: | If no, give reason: | If no, give reason: |", "parent_section": "§6.1.3.3 [Exposure/Exposure as Collected Examples]", "heading_level": null, "sibling_index": null, "cross_refs": null, "figure_ref": null, "table_ref": "CRF example", "prompt_version": "P0_writer_pdf_v1.2+TOC_anchor+R1-R14"}
{"atom_id": "ig34_p0118_a006", "source": "SDTMIG v3.4 (no header footer).pdf", "source_short": "ig34", "page": 118, "atom_index_on_page": 6, "atom_type": "TABLE_ROW", "verbatim": "| | | | Treatment discontinued due to disease progression | Treatment discontinued due to disease progression | Treatment discontinued due to disease progression |", "parent_section": "§6.1.3.3 [Exposure/Exposure as Collected Examples]", "heading_level": null, "sibling_index": null, "cross_refs": null, "figure_ref": null, "table_ref": "CRF example", "prompt_version": "P0_writer_pdf_v1.2+TOC_anchor+R1-R14"}
{"atom_id": "ig34_p0118_a007", "source": "SDTMIG v3.4 (no header footer).pdf", "source_short": "ig34", "page": 118, "atom_index_on_page": 7, "atom_type": "TABLE_ROW", "verbatim": "| | | | Other, specify: | Other, specify: Personal reason | Other, specify: |", "parent_section": "§6.1.3.3 [Exposure/Exposure as Collected Examples]", "heading_level": null, "sibling_index": null, "cross_refs": null, "figure_ref": null, "table_ref": "CRF example", "prompt_version": "P0_writer_pdf_v1.2+TOC_anchor+R1-R14"}
{"atom_id": "ig34_p0118_a008", "source": "SDTMIG v3.4 (no header footer).pdf", "source_short": "ig34", "page": 118, "atom_index_on_page": 8, "atom_type": "TABLE_ROW", "verbatim": "| Date | 13-FEB-2009 | 20-FEB-2009 | 27-FEB-2009 |", "parent_section": "§6.1.3.3 [Exposure/Exposure as Collected Examples]", "heading_level": null, "sibling_index": null, "cross_refs": null, "figure_ref": null, "table_ref": "CRF example", "prompt_version": "P0_writer_pdf_v1.2+TOC_anchor+R1-R14"}
{"atom_id": "ig34_p0118_a009", "source": "SDTMIG v3.4 (no header footer).pdf", "source_short": "ig34", "page": 118, "atom_index_on_page": 9, "atom_type": "TABLE_ROW", "verbatim": "| Start Time (24 hour clock) | 10:00 | 11:00 | |", "parent_section": "§6.1.3.3 [Exposure/Exposure as Collected Examples]", "heading_level": null, "sibling_index": null, "cross_refs": null, "figure_ref": null, "table_ref": "CRF example", "prompt_version": "P0_writer_pdf_v1.2+TOC_anchor+R1-R14"}
{"atom_id": "ig34_p0118_a010", "source": "SDTMIG v3.4 (no header footer).pdf", "source_short": "ig34", "page": 118, "atom_index_on_page": 10, "atom_type": "TABLE_ROW", "verbatim": "| End Time (24 hour clock) | 10:45 | 11:20 | |", "parent_section": "§6.1.3.3 [Exposure/Exposure as Collected Examples]", "heading_level": null, "sibling_index": null, "cross_refs": null, "figure_ref": null, "table_ref": "CRF example", "prompt_version": "P0_writer_pdf_v1.2+TOC_anchor+R1-R14"}
{"atom_id": "ig34_p0118_a011", "source": "SDTMIG v3.4 (no header footer).pdf", "source_short": "ig34", "page": 118, "atom_index_on_page": 11, "atom_type": "TABLE_ROW", "verbatim": "| Amount (mL) | 99 mL | 35 mL | 0 mL |", "parent_section": "§6.1.3.3 [Exposure/Exposure as Collected Examples]", "heading_level": null, "sibling_index": null, "cross_refs": null, "figure_ref": null, "table_ref": "CRF example", "prompt_version": "P0_writer_pdf_v1.2+TOC_anchor+R1-R14"}
{"atom_id": "ig34_p0118_a012", "source": "SDTMIG v3.4 (no header footer).pdf", "source_short": "ig34", "page": 118, "atom_index_on_page": 12, "atom_type": "TABLE_ROW", "verbatim": "| Concentration | 5.5 mg/mL | 4.12 mg/mL | |", "parent_section": "§6.1.3.3 [Exposure/Exposure as Collected Examples]", "heading_level": null, "sibling_index": null, "cross_refs": null, "figure_ref": null, "table_ref": "CRF example", "prompt_version": "P0_writer_pdf_v1.2+TOC_anchor+R1-R14"}
{"atom_id": "ig34_p0118_a013", "source": "SDTMIG v3.4 (no header footer).pdf", "source_short": "ig34", "page": 118, "atom_index_on_page": 13, "atom_type": "TABLE_ROW", "verbatim": "| If dose was adjusted, what was the reason? | Injection site reaction | Injection site reaction | Injection site reaction |", "parent_section": "§6.1.3.3 [Exposure/Exposure as Collected Examples]", "heading_level": null, "sibling_index": null, "cross_refs": null, "figure_ref": null, "table_ref": "CRF example", "prompt_version": "P0_writer_pdf_v1.2+TOC_anchor+R1-R14"}
{"atom_id": "ig34_p0118_a014", "source": "SDTMIG v3.4 (no header footer).pdf", "source_short": "ig34", "page": 118, "atom_index_on_page": 14, "atom_type": "TABLE_ROW", "verbatim": "| | Adverse event | Adverse event | Adverse event |", "parent_section": "§6.1.3.3 [Exposure/Exposure as Collected Examples]", "heading_level": null, "sibling_index": null, "cross_refs": null, "figure_ref": null, "table_ref": "CRF example", "prompt_version": "P0_writer_pdf_v1.2+TOC_anchor+R1-R14"}
{"atom_id": "ig34_p0118_a015", "source": "SDTMIG v3.4 (no header footer).pdf", "source_short": "ig34", "page": 118, "atom_index_on_page": 15, "atom_type": "TABLE_ROW", "verbatim": "| | Other, specify: | Other, specify: | Other, specify: |", "parent_section": "§6.1.3.3 [Exposure/Exposure as Collected Examples]", "heading_level": null, "sibling_index": null, "cross_refs": null, "figure_ref": null, "table_ref": "CRF example", "prompt_version": "P0_writer_pdf_v1.2+TOC_anchor+R1-R14"}
{"atom_id": "ig34_p0118_a016", "source": "SDTMIG v3.4 (no header footer).pdf", "source_short": "ig34", "page": 118, "atom_index_on_page": 16, "atom_type": "SENTENCE", "verbatim": "Rows 1, 3, 5:  Show the collected intended dose levels (mg/kg) and ECMOOD is \"SCHEDULED\".", "parent_section": "§6.1.3.3 [Exposure/Exposure as Collected Examples]", "heading_level": null, "sibling_index": null, "cross_refs": null, "figure_ref": null, "table_ref": null, "prompt_version": "P0_writer_pdf_v1.2+TOC_anchor+R1-R14"}
{"atom_id": "ig34_p0118_a017", "source": "SDTMIG v3.4 (no header footer).pdf", "source_short": "ig34", "page": 118, "atom_index_on_page": 17, "atom_type": "SENTENCE", "verbatim": "Scheduled dose is represented in mg/mL.", "parent_section": "§6.1.3.3 [Exposure/Exposure as Collected Examples]", "heading_level": null, "sibling_index": null, "cross_refs": null, "figure_ref": null, "table_ref": null, "prompt_version": "P0_writer_pdf_v1.2+TOC_anchor+R1-R14"}
{"atom_id": "ig34_p0118_a018", "source": "SDTMIG v3.4 (no header footer).pdf", "source_short": "ig34", "page": 118, "atom_index_on_page": 18, "atom_type": "SENTENCE", "verbatim": "Rows 2, 4:  Show the collected actual administration amounts (mL) and ECMOOD is \"PERFORMED\".", "parent_section": "§6.1.3.3 [Exposure/Exposure as Collected Examples]", "heading_level": null, "sibling_index": null, "cross_refs": null, "figure_ref": null, "table_ref": null, "prompt_version": "P0_writer_pdf_v1.2+TOC_anchor+R1-R14"}
{"atom_id": "ig34_p0118_a019", "source": "SDTMIG v3.4 (no header footer).pdf", "source_short": "ig34", "page": 118, "atom_index_on_page": 19, "atom_type": "SENTENCE", "verbatim": "Actual doses are represented using dose in mL and concentration (pharmaceutical strength) in mg/mL.", "parent_section": "§6.1.3.3 [Exposure/Exposure as Collected Examples]", "heading_level": null, "sibling_index": null, "cross_refs": null, "figure_ref": null, "table_ref": null, "prompt_version": "P0_writer_pdf_v1.2+TOC_anchor+R1-R14"}
{"atom_id": "ig34_p0118_a020", "source": "SDTMIG v3.4 (no header footer).pdf", "source_short": "ig34", "page": 118, "atom_index_on_page": 20, "atom_type": "SENTENCE", "verbatim": "Row 6:  Shows a dose that was not given.", "parent_section": "§6.1.3.3 [Exposure/Exposure as Collected Examples]", "heading_level": null, "sibling_index": null, "cross_refs": null, "figure_ref": null, "table_ref": null, "prompt_version": "P0_writer_pdf_v1.2+TOC_anchor+R1-R14"}
{"atom_id": "ig34_p0118_a021", "source": "SDTMIG v3.4 (no header footer).pdf", "source_short": "ig34", "page": 118, "atom_index_on_page": 21, "atom_type": "SENTENCE", "verbatim": "ECREASOC shows the reason that ECOCCUR = \"N\", and ECDOSE is null.", "parent_section": "§6.1.3.3 [Exposure/Exposure as Collected Examples]", "heading_level": null, "sibling_index": null, "cross_refs": null, "figure_ref": null, "table_ref": null, "prompt_version": "P0_writer_pdf_v1.2+TOC_anchor+R1-R14"}
{"atom_id": "ig34_p0118_a022", "source": "SDTMIG v3.4 (no header footer).pdf", "source_short": "ig34", "page": 118, "atom_index_on_page": 22, "atom_type": "CODE_LITERAL", "verbatim": "ec.xpt", "parent_section": "§6.1.3.3 [Exposure/Exposure as Collected Examples]", "heading_level": null, "sibling_index": null, "cross_refs": null, "figure_ref": null, "table_ref": null, "prompt_version": "P0_writer_pdf_v1.2+TOC_anchor+R1-R14"}
{"atom_id": "ig34_p0118_a023", "source": "SDTMIG v3.4 (no header footer).pdf", "source_short": "ig34", "page": 118, "atom_index_on_page": 23, "atom_type": "TABLE_HEADER", "verbatim": "| Row | STUDYID | DOMAIN | USUBJID | ECSEQ | ECLNKID | ECLNKGRP | ECTRT | ECMOOD | ECPRESP | ECOCCUR | ECREASOC | ECDOSE | ECDOSU | ECPSTRG | ECPSTRGU | ECADJ | VISITNUM | VISIT | EPOCH | ECSTDTC | ECENDTC | ECSTDY | ECENDY |", "parent_section": "§6.1.3.3 [Exposure/Exposure as Collected Examples]", "heading_level": null, "sibling_index": null, "cross_refs": null, "figure_ref": null, "table_ref": "ec.xpt", "prompt_version": "P0_writer_pdf_v1.2+TOC_anchor+R1-R14"}
{"atom_id": "ig34_p0118_a024", "source": "SDTMIG v3.4 (no header footer).pdf", "source_short": "ig34", "page": 118, "atom_index_on_page": 24, "atom_type": "TABLE_ROW", "verbatim": "| 1 | ABC123 | EC | ABC123-0201 | 1 | | V1 | DRUG | SCHEDULED | 10 | | | mg/kg | | | | 1 | VISIT | TREATMENT | 2009-02-13 | 2009-02-13 | 1 | 1 |", "parent_section": "§6.1.3.3 [Exposure/Exposure as Collected Examples]", "heading_level": null, "sibling_index": null, "cross_refs": null, "figure_ref": null, "table_ref": "ec.xpt", "prompt_version": "P0_writer_pdf_v1.2+TOC_anchor+R1-R14"}
{"atom_id": "ig34_p0118_a025", "source": "SDTMIG v3.4 (no header footer).pdf", "source_short": "ig34", "page": 118, "atom_index_on_page": 25, "atom_type": "TABLE_ROW", "verbatim": "| 2 | ABC123 | EC | ABC123-0201 | 2 | 20090213T1000 | V1 | DRUG | PERFORMED | Y | Y | 9.9 | mg/kg | 5.5 | mg/mL | | 2 | VISIT | TREATMENT | 2009-02-13 | 2009-02-13 | 1 | 1 |", "parent_section": "§6.1.3.3 [Exposure/Exposure as Collected Examples]", "heading_level": null, "sibling_index": null, "cross_refs": null, "figure_ref": null, "table_ref": "ec.xpt", "prompt_version": "P0_writer_pdf_v1.2+TOC_anchor+R1-R14"}
{"atom_id": "ig34_p0118_a026", "source": "SDTMIG v3.4 (no header footer).pdf", "source_short": "ig34", "page": 118, "atom_index_on_page": 26, "atom_type": "TABLE_ROW", "verbatim": "| 3 | ABC123 | EC | ABC123-0201 | 3 | | V2 | DRUG | SCHEDULED | 7.5 | | | mg/kg | | | | 1 | Dose limiting toxicity | 2 | VISIT | TREATMENT | 2009-02-20 | 2009-02-20 | 8 | 8 |", "parent_section": "§6.1.3.3 [Exposure/Exposure as Collected Examples]", "heading_level": null, "sibling_index": null, "cross_refs": null, "figure_ref": null, "table_ref": "ec.xpt", "prompt_version": "P0_writer_pdf_v1.2+TOC_anchor+R1-R14"}
{"atom_id": "ig34_p0118_a027", "source": "SDTMIG v3.4 (no header footer).pdf", "source_short": "ig34", "page": 118, "atom_index_on_page": 27, "atom_type": "TABLE_ROW", "verbatim": "| 4 | ABC123 | EC | ABC123-0201 | 4 | 20090220T1100 | V2 | DRUG | PERFORMED | Y | Y | 2.6 | mg/kg | 4.12 | mg/mL | Dose limiting toxicity | 2 | VISIT | TREATMENT | 2009-02-20 | 2009-02-20 | 8 | 8 |", "parent_section": "§6.1.3.3 [Exposure/Exposure as Collected Examples]", "heading_level": null, "sibling_index": null, "cross_refs": null, "figure_ref": null, "table_ref": "ec.xpt", "prompt_version": "P0_writer_pdf_v1.2+TOC_anchor+R1-R14"}
{"atom_id": "ig34_p0118_a028", "source": "SDTMIG v3.4 (no header footer).pdf", "source_short": "ig34", "page": 118, "atom_index_on_page": 28, "atom_type": "TABLE_ROW", "verbatim": "| 5 | ABC123 | EC | ABC123-0201 | 5 | | V3 | DRUG | SCHEDULED | 7.5 | | | mg/kg | | | | 3 | | VISIT | TREATMENT | 2009-02-27 | 2009-02-27 | 15 | 15 |", "parent_section": "§6.1.3.3 [Exposure/Exposure as Collected Examples]", "heading_level": null, "sibling_index": null, "cross_refs": null, "figure_ref": null, "table_ref": "ec.xpt", "prompt_version": "P0_writer_pdf_v1.2+TOC_anchor+R1-R14"}
{"atom_id": "ig34_p0118_a029", "source": "SDTMIG v3.4 (no header footer).pdf", "source_short": "ig34", "page": 118, "atom_index_on_page": 29, "atom_type": "TABLE_ROW", "verbatim": "| 6 | ABC123 | EC | ABC123-0201 | 6 | 20090227 | V3 | DRUG | PERFORMED | Y | N | PERSONAL REASON | | mL | 4.12 | mg/mL | 3 | VISIT | TREATMENT | 2009-02-27 | 2009-02-27 | 15 | 15 |", "parent_section": "§6.1.3.3 [Exposure/Exposure as Collected Examples]", "heading_level": null, "sibling_index": null, "cross_refs": null, "figure_ref": null, "table_ref": "ec.xpt", "prompt_version": "P0_writer_pdf_v1.2+TOC_anchor+R1-R14"}
{"atom_id": "ig34_p0118_a030", "source": "SDTMIG v3.4 (no header footer).pdf", "source_short": "ig34", "page": 118, "atom_index_on_page": 30, "atom_type": "SENTENCE", "verbatim": "The EX dataset shows the administrations in protocol-specified unit (mg/kg).", "parent_section": "§6.1.3.3 [Exposure/Exposure as Collected Examples]", "heading_level": null, "sibling_index": null, "cross_refs": null, "figure_ref": null, "table_ref": null, "prompt_version": "P0_writer_pdf_v1.2+TOC_anchor+R1-R14"}
{"atom_id": "ig34_p0118_a031", "source": "SDTMIG v3.4 (no header footer).pdf", "source_short": "ig34", "page": 118, "atom_index_on_page": 31, "atom_type": "SENTENCE", "verbatim": "There is no record for the intended third dose that was not given.", "parent_section": "§6.1.3.3 [Exposure/Exposure as Collected Examples]", "heading_level": null, "sibling_index": null, "cross_refs": null, "figure_ref": null, "table_ref": null, "prompt_version": "P0_writer_pdf_v1.2+TOC_anchor+R1-R14"}
{"atom_id": "ig34_p0118_a032", "source": "SDTMIG v3.4 (no header footer).pdf", "source_short": "ig34", "page": 118, "atom_index_on_page": 32, "atom_type": "SENTENCE", "verbatim": "Intended doses in EC (records with ECMOOD = \"SCHEDULED\") can be compared with actual doses in EX.", "parent_section": "§6.1.3.3 [Exposure/Exposure as Collected Examples]", "heading_level": null, "sibling_index": null, "cross_refs": null, "figure_ref": null, "table_ref": null, "prompt_version": "P0_writer_pdf_v1.2+TOC_anchor+R1-R14"}
{"atom_id": "ig34_p0119_a001", "source": "SDTMIG v3.4 (no header footer).pdf", "source_short": "ig34", "page": 119, "atom_index_on_page": 1, "atom_type": "CODE_LITERAL", "verbatim": "ex.xpt", "parent_section": "§6.1.3.3 [Exposure/Exposure as Collected Examples]", "heading_level": null, "sibling_index": null, "cross_refs": null, "figure_ref": null, "table_ref": "ex.xpt", "prompt_version": "P0_writer_pdf_v1.2+TOC_anchor+R1-R14"}
{"atom_id": "ig34_p0119_a002", "source": "SDTMIG v3.4 (no header footer).pdf", "source_short": "ig34", "page": 119, "atom_index_on_page": 2, "atom_type": "TABLE_HEADER", "verbatim": "| Row | STUDYID | DOMAIN | USUBJID | EXSEQ | EXLNKID | EXLNKGRP | EXTRT | EXDOSE | EXDOSU | EXDOSFRM | EXDOSFRQ | EXROUTE | EXADJ | VISITNUM | VISIT | EPOCH | EXSTDTC | EXENDTC | EXSTDY | EXENDY |", "parent_section": "§6.1.3.3 [Exposure/Exposure as Collected Examples]", "heading_level": null, "sibling_index": null, "cross_refs": null, "figure_ref": null, "table_ref": "ex.xpt", "prompt_version": "P0_writer_pdf_v1.2+TOC_anchor+R1-R14"}
{"atom_id": "ig34_p0119_a003", "source": "SDTMIG v3.4 (no header footer).pdf", "source_short": "ig34", "page": 119, "atom_index_on_page": 3, "atom_type": "TABLE_ROW", "verbatim": "| 1 | ABC123 | EX | ABC123-0201 | 1 | 20090213T1000 | V1 | DRUG Z | 9.9 | mg/kg | SOLUTION | CONTINUOUS | INTRAVENOUS | | 1 | VISIT 2 | TREATMENT | 2009-02-13T10:00 | 2009-02-13T10:00 | 1 | 1 |", "parent_section": "§6.1.3.3 [Exposure/Exposure as Collected Examples]", "heading_level": null, "sibling_index": null, "cross_refs": null, "figure_ref": null, "table_ref": "ex.xpt", "prompt_version": "P0_writer_pdf_v1.2+TOC_anchor+R1-R14"}
{"atom_id": "ig34_p0119_a004", "source": "SDTMIG v3.4 (no header footer).pdf", "source_short": "ig34", "page": 119, "atom_index_on_page": 4, "atom_type": "TABLE_ROW", "verbatim": "| 2 | ABC123 | EX | ABC123-0201 | 2 | 20090220T1100 | V2 | DRUG Z | 2.6 | mg/kg | SOLUTION | CONTINUOUS | INTRAVENOUS | Injection site reaction | 2 | VISIT 2 | TREATMENT | 2009-02-20T11:00 | 2009-02-20T11:00 | 8 | 8 |", "parent_section": "§6.1.3.3 [Exposure/Exposure as Collected Examples]", "heading_level": null, "sibling_index": null, "cross_refs": null, "figure_ref": null, "table_ref": "ex.xpt", "prompt_version": "P0_writer_pdf_v1.2+TOC_anchor+R1-R14"}
{"atom_id": "ig34_p0119_a005", "source": "SDTMIG v3.4 (no header footer).pdf", "source_short": "ig34", "page": 119, "atom_index_on_page": 5, "atom_type": "SENTENCE", "verbatim": "To complete this example the relevant records from the Vital Signs domain are represented below, to show the collected weight of the subject which was used for the dosing calculations.", "parent_section": "§6.1.3.3 [Exposure/Exposure as Collected Examples]", "heading_level": null, "sibling_index": null, "cross_refs": null, "figure_ref": null, "table_ref": null, "prompt_version": "P0_writer_pdf_v1.2+TOC_anchor+R1-R14"}
{"atom_id": "ig34_p0119_a006", "source": "SDTMIG v3.4 (no header footer).pdf", "source_short": "ig34", "page": 119, "atom_index_on_page": 6, "atom_type": "CODE_LITERAL", "verbatim": "vs.xpt", "parent_section": "§6.1.3.3 [Exposure/Exposure as Collected Examples]", "heading_level": null, "sibling_index": null, "cross_refs": null, "figure_ref": null, "table_ref": "vs.xpt", "prompt_version": "P0_writer_pdf_v1.2+TOC_anchor+R1-R14"}
{"atom_id": "ig34_p0119_a007", "source": "SDTMIG v3.4 (no header footer).pdf", "source_short": "ig34", "page": 119, "atom_index_on_page": 7, "atom_type": "TABLE_HEADER", "verbatim": "| Row | STUDYID | DOMAIN | USUBJID | VSSEQ | VSLNKID | VSLNKGRP | VSTESTCD | VSTEST | VSORRES | VSORRESU | VSTRESC | VSTRESN | VSLOBXFL | VISITNUM | VISIT | VSDTC | EPOCH |", "parent_section": "§6.1.3.3 [Exposure/Exposure as Collected Examples]", "heading_level": null, "sibling_index": null, "cross_refs": null, "figure_ref": null, "table_ref": "vs.xpt", "prompt_version": "P0_writer_pdf_v1.2+TOC_anchor+R1-R14"}
{"atom_id": "ig34_p0119_a008", "source": "SDTMIG v3.4 (no header footer).pdf", "source_short": "ig34", "page": 119, "atom_index_on_page": 8, "atom_type": "TABLE_ROW", "verbatim": "| 1 | ABC123 | VS | ABC123-0201 | 1 | 20090213T1000 | V1 | WEIGHT | Weight | 55 | kg | 55 | 55 | Y | 1 | VISIT 1 | 2009-02-13 | TREATMENT |", "parent_section": "§6.1.3.3 [Exposure/Exposure as Collected Examples]", "heading_level": null, "sibling_index": null, "cross_refs": null, "figure_ref": null, "table_ref": "vs.xpt", "prompt_version": "P0_writer_pdf_v1.2+TOC_anchor+R1-R14"}
{"atom_id": "ig34_p0119_a009", "source": "SDTMIG v3.4 (no header footer).pdf", "source_short": "ig34", "page": 119, "atom_index_on_page": 9, "atom_type": "TABLE_ROW", "verbatim": "| 2 | ABC123 | VS | ABC123-0201 | 2 | 20090220T1100 | V2 | WEIGHT | Weight | 55 | kg | 55 | 55 | | 2 | VISIT 2 | 2009-02-20 | TREATMENT |", "parent_section": "§6.1.3.3 [Exposure/Exposure as Collected Examples]", "heading_level": null, "sibling_index": null, "cross_refs": null, "figure_ref": null, "table_ref": "vs.xpt", "prompt_version": "P0_writer_pdf_v1.2+TOC_anchor+R1-R14"}
{"atom_id": "ig34_p0119_a010", "source": "SDTMIG v3.4 (no header footer).pdf", "source_short": "ig34", "page": 119, "atom_index_on_page": 10, "atom_type": "SENTENCE", "verbatim": "The RELREC dataset represents relationships between EC, EX, and VS.", "parent_section": "§6.1.3.3 [Exposure/Exposure as Collected Examples]", "heading_level": null, "sibling_index": null, "cross_refs": null, "figure_ref": null, "table_ref": null, "prompt_version": "P0_writer_pdf_v1.2+TOC_anchor+R1-R14"}
{"atom_id": "ig34_p0119_a011", "source": "SDTMIG v3.4 (no header footer).pdf", "source_short": "ig34", "page": 119, "atom_index_on_page": 11, "atom_type": "SENTENCE", "verbatim": "Rows 1-3:    Represent the one-to-one-to-one relationship between \"PERFORMED\" records in EC, records in EX, and records in VS using --LNKID, .", "parent_section": "§6.1.3.3 [Exposure/Exposure as Collected Examples]", "heading_level": null, "sibling_index": null, "cross_refs": null, "figure_ref": null, "table_ref": null, "prompt_version": "P0_writer_pdf_v1.2+TOC_anchor+R1-R14"}
{"atom_id": "ig34_p0119_a012", "source": "SDTMIG v3.4 (no header footer).pdf", "source_short": "ig34", "page": 119, "atom_index_on_page": 12, "atom_type": "SENTENCE", "verbatim": "Rows 4-6:    Represent the many-to-one-to-one relationship between many records in EC (both \"SCHEDULED\" and \"PERFORMED\"), one record in EX, and one record in VS (for each visit), using --LNKGRP.", "parent_section": "§6.1.3.3 [Exposure/Exposure as Collected Examples]", "heading_level": null, "sibling_index": null, "cross_refs": null, "figure_ref": null, "table_ref": null, "prompt_version": "P0_writer_pdf_v1.2+TOC_anchor+R1-R14"}
{"atom_id": "ig34_p0119_a013", "source": "SDTMIG v3.4 (no header footer).pdf", "source_short": "ig34", "page": 119, "atom_index_on_page": 13, "atom_type": "CODE_LITERAL", "verbatim": "relrec.xpt", "parent_section": "§6.1.3.3 [Exposure/Exposure as Collected Examples]", "heading_level": null, "sibling_index": null, "cross_refs": null, "figure_ref": null, "table_ref": "relrec.xpt", "prompt_version": "P0_writer_pdf_v1.2+TOC_anchor+R1-R14"}
{"atom_id": "ig34_p0119_a014", "source": "SDTMIG v3.4 (no header footer).pdf", "source_short": "ig34", "page": 119, "atom_index_on_page": 14, "atom_type": "TABLE_HEADER", "verbatim": "| Row | STUDYID | RDOMAIN | USUBJID | IDVAR | IDVARVAL | RELTYPE | RELID |", "parent_section": "§6.1.3.3 [Exposure/Exposure as Collected Examples]", "heading_level": null, "sibling_index": null, "cross_refs": null, "figure_ref": null, "table_ref": "relrec.xpt", "prompt_version": "P0_writer_pdf_v1.2+TOC_anchor+R1-R14"}
{"atom_id": "ig34_p0119_a015", "source": "SDTMIG v3.4 (no header footer).pdf", "source_short": "ig34", "page": 119, "atom_index_on_page": 15, "atom_type": "TABLE_ROW", "verbatim": "| 1 | ABC123 | EC | | ECLNKID | | ONE | 1 |", "parent_section": "§6.1.3.3 [Exposure/Exposure as Collected Examples]", "heading_level": null, "sibling_index": null, "cross_refs": null, "figure_ref": null, "table_ref": "relrec.xpt", "prompt_version": "P0_writer_pdf_v1.2+TOC_anchor+R1-R14"}
{"atom_id": "ig34_p0119_a016", "source": "SDTMIG v3.4 (no header footer).pdf", "source_short": "ig34", "page": 119, "atom_index_on_page": 16, "atom_type": "TABLE_ROW", "verbatim": "| 2 | ABC123 | EX | | EXLNKID | | ONE | 1 |", "parent_section": "§6.1.3.3 [Exposure/Exposure as Collected Examples]", "heading_level": null, "sibling_index": null, "cross_refs": null, "figure_ref": null, "table_ref": "relrec.xpt", "prompt_version": "P0_writer_pdf_v1.2+TOC_anchor+R1-R14"}
{"atom_id": "ig34_p0119_a017", "source": "SDTMIG v3.4 (no header footer).pdf", "source_short": "ig34", "page": 119, "atom_index_on_page": 17, "atom_type": "TABLE_ROW", "verbatim": "| 6 | ABC123 | VS | | VSLNKID | | ONE | 1 |", "parent_section": "§6.1.3.3 [Exposure/Exposure as Collected Examples]", "heading_level": null, "sibling_index": null, "cross_refs": null, "figure_ref": null, "table_ref": "relrec.xpt", "prompt_version": "P0_writer_pdf_v1.2+TOC_anchor+R1-R14"}
{"atom_id": "ig34_p0119_a018", "source": "SDTMIG v3.4 (no header footer).pdf", "source_short": "ig34", "page": 119, "atom_index_on_page": 18, "atom_type": "TABLE_ROW", "verbatim": "| 3 | ABC123 | EC | | ECLNKGRP | | MANY | 2 |", "parent_section": "§6.1.3.3 [Exposure/Exposure as Collected Examples]", "heading_level": null, "sibling_index": null, "cross_refs": null, "figure_ref": null, "table_ref": "relrec.xpt", "prompt_version": "P0_writer_pdf_v1.2+TOC_anchor+R1-R14"}
{"atom_id": "ig34_p0119_a019", "source": "SDTMIG v3.4 (no header footer).pdf", "source_short": "ig34", "page": 119, "atom_index_on_page": 19, "atom_type": "TABLE_ROW", "verbatim": "| 4 | ABC123 | EX | | EXLNKGRP | | ONE | 2 |", "parent_section": "§6.1.3.3 [Exposure/Exposure as Collected Examples]", "heading_level": null, "sibling_index": null, "cross_refs": null, "figure_ref": null, "table_ref": "relrec.xpt", "prompt_version": "P0_writer_pdf_v1.2+TOC_anchor+R1-R14"}
{"atom_id": "ig34_p0119_a020", "source": "SDTMIG v3.4 (no header footer).pdf", "source_short": "ig34", "page": 119, "atom_index_on_page": 20, "atom_type": "TABLE_ROW", "verbatim": "| ABC123 | VS | | VSLNKGRP | | ONE | 2 |", "parent_section": "§6.1.3.3 [Exposure/Exposure as Collected Examples]", "heading_level": null, "sibling_index": null, "cross_refs": null, "figure_ref": null, "table_ref": "relrec.xpt", "prompt_version": "P0_writer_pdf_v1.2+TOC_anchor+R1-R14"}
{"atom_id": "ig34_p0119_a021", "source": "SDTMIG v3.4 (no header footer).pdf", "source_short": "ig34", "page": 119, "atom_index_on_page": 21, "atom_type": "HEADING", "verbatim": "Example 8", "parent_section": "§6.1.3.3 [Exposure/Exposure as Collected Examples]", "heading_level": 5, "sibling_index": 8, "cross_refs": null, "figure_ref": null, "table_ref": null, "prompt_version": "P0_writer_pdf_v1.2+TOC_anchor+R1-R14"}
{"atom_id": "ig34_p0119_a022", "source": "SDTMIG v3.4 (no header footer).pdf", "source_short": "ig34", "page": 119, "atom_index_on_page": 22, "atom_type": "SENTENCE", "verbatim": "In this example, a 100 mg tablet is scheduled to be taken daily. Start and end of dosing were collected, along with deviations from the planned daily dosing. Note: This method of data collection design is not consistent with current CDASH standards.", "parent_section": "§6.1.3.3 [Exposure/Exposure as Collected Examples]", "heading_level": null, "sibling_index": null, "cross_refs": null, "figure_ref": null, "table_ref": null, "prompt_version": "P0_writer_pdf_v1.2+TOC_anchor+R1-R14"}
{"atom_id": "ig34_p0119_a023", "source": "SDTMIG v3.4 (no header footer).pdf", "source_short": "ig34", "page": 119, "atom_index_on_page": 23, "atom_type": "TABLE_HEADER", "verbatim": "| First Dose Date | Last Dose Date |", "parent_section": "§6.1.3.3 [Exposure/Exposure as Collected Examples]", "heading_level": null, "sibling_index": null, "cross_refs": null, "figure_ref": null, "table_ref": null, "prompt_version": "P0_writer_pdf_v1.2+TOC_anchor+R1-R14"}
{"atom_id": "ig34_p0119_a024", "source": "SDTMIG v3.4 (no header footer).pdf", "source_short": "ig34", "page": 119, "atom_index_on_page": 24, "atom_type": "TABLE_ROW", "verbatim": "| 2012-01-13 | 2012-01-20 |", "parent_section": "§6.1.3.3 [Exposure/Exposure as Collected Examples]", "heading_level": null, "sibling_index": null, "cross_refs": null, "figure_ref": null, "table_ref": null, "prompt_version": "P0_writer_pdf_v1.2+TOC_anchor+R1-R14"}
{"atom_id": "ig34_p0119_a025", "source": "SDTMIG v3.4 (no header footer).pdf", "source_short": "ig34", "page": 119, "atom_index_on_page": 25, "atom_type": "TABLE_HEADER", "verbatim": "| Date | Number of Doses Daily If/When Deviated from Plan |", "parent_section": "§6.1.3.3 [Exposure/Exposure as Collected Examples]", "heading_level": null, "sibling_index": null, "cross_refs": null, "figure_ref": null, "table_ref": null, "prompt_version": "P0_writer_pdf_v1.2+TOC_anchor+R1-R14"}
{"atom_id": "ig34_p0119_a026", "source": "SDTMIG v3.4 (no header footer).pdf", "source_short": "ig34", "page": 119, "atom_index_on_page": 26, "atom_type": "TABLE_ROW", "verbatim": "| 2012-01-15 | 0 |", "parent_section": "§6.1.3.3 [Exposure/Exposure as Collected Examples]", "heading_level": null, "sibling_index": null, "cross_refs": null, "figure_ref": null, "table_ref": null, "prompt_version": "P0_writer_pdf_v1.2+TOC_anchor+R1-R14"}
{"atom_id": "ig34_p0119_a027", "source": "SDTMIG v3.4 (no header footer).pdf", "source_short": "ig34", "page": 119, "atom_index_on_page": 27, "atom_type": "TABLE_ROW", "verbatim": "| 2012-01-16 | 2 |", "parent_section": "§6.1.3.3 [Exposure/Exposure as Collected Examples]", "heading_level": null, "sibling_index": null, "cross_refs": null, "figure_ref": null, "table_ref": null, "prompt_version": "P0_writer_pdf_v1.2+TOC_anchor+R1-R14"}
{"atom_id": "ig34_p0119_a028", "source": "SDTMIG v3.4 (no header footer).pdf", "source_short": "ig34", "page": 119, "atom_index_on_page": 28, "atom_type": "SENTENCE", "verbatim": "The EC dataset shows administrations as collected.", "parent_section": "§6.1.3.3 [Exposure/Exposure as Collected Examples]", "heading_level": null, "sibling_index": null, "cross_refs": null, "figure_ref": null, "table_ref": null, "prompt_version": "P0_writer_pdf_v1.2+TOC_anchor+R1-R14"}
{"atom_id": "ig34_p0119_a029", "source": "SDTMIG v3.4 (no header footer).pdf", "source_short": "ig34", "page": 119, "atom_index_on_page": 29, "atom_type": "SENTENCE", "verbatim": "Row 1:    Shows the overall dosing interval from first dose date to last dose date.", "parent_section": "§6.1.3.3 [Exposure/Exposure as Collected Examples]", "heading_level": null, "sibling_index": null, "cross_refs": null, "figure_ref": null, "table_ref": null, "prompt_version": "P0_writer_pdf_v1.2+TOC_anchor+R1-R14"}
{"atom_id": "ig34_p0119_a030", "source": "SDTMIG v3.4 (no header footer).pdf", "source_short": "ig34", "page": 119, "atom_index_on_page": 30, "atom_type": "SENTENCE", "verbatim": "Row 2:    Shows the missed dose on 2012-01-15, which falls within the overall dosing interval.", "parent_section": "§6.1.3.3 [Exposure/Exposure as Collected Examples]", "heading_level": null, "sibling_index": null, "cross_refs": null, "figure_ref": null, "table_ref": null, "prompt_version": "P0_writer_pdf_v1.2+TOC_anchor+R1-R14"}
{"atom_id": "ig34_p0119_a031", "source": "SDTMIG v3.4 (no header footer).pdf", "source_short": "ig34", "page": 119, "atom_index_on_page": 31, "atom_type": "SENTENCE", "verbatim": "Row 3:    Shows a doubled dose on 2012-01-16, which also falls within the overall dosing interval.", "parent_section": "§6.1.3.3 [Exposure/Exposure as Collected Examples]", "heading_level": null, "sibling_index": null, "cross_refs": null, "figure_ref": null, "table_ref": null, "prompt_version": "P0_writer_pdf_v1.2+TOC_anchor+R1-R14"}
{"atom_id": "ig34_p0120_a001", "source": "SDTMIG v3.4 (no header footer).pdf", "source_short": "ig34", "page": 120, "atom_index_on_page": 1, "atom_type": "CODE_LITERAL", "verbatim": "ec.xpt", "parent_section": "§6.1.3.3 [Exposure/Exposure as Collected Examples]", "heading_level": null, "sibling_index": null, "cross_refs": null, "figure_ref": null, "table_ref": null, "prompt_version": "P0_writer_pdf_v1.2+TOC_anchor+R1-R14"}
{"atom_id": "ig34_p0120_a002", "source": "SDTMIG v3.4 (no header footer).pdf", "source_short": "ig34", "page": 120, "atom_index_on_page": 2, "atom_type": "TABLE_HEADER", "verbatim": "| Row | STUDYID | DOMAIN | USUBJID | ECSEQ | ECTRT | ECCAT | ECPRESP | ECOCCUR | ECDOSE |", "parent_section": "§6.1.3.3 [Exposure/Exposure as Collected Examples]", "heading_level": null, "sibling_index": null, "cross_refs": null, "figure_ref": null, "table_ref": "ec.xpt", "prompt_version": "P0_writer_pdf_v1.2+TOC_anchor+R1-R14"}
{"atom_id": "ig34_p0120_a003", "source": "SDTMIG v3.4 (no header footer).pdf", "source_short": "ig34", "page": 120, "atom_index_on_page": 3, "atom_type": "TABLE_ROW", "verbatim": "| 1 | ABC | EC | ABC7001 | 1 | BOTTLE A | FIRST DOSE INTERVAL | Y | Y | |", "parent_section": "§6.1.3.3 [Exposure/Exposure as Collected Examples]", "heading_level": null, "sibling_index": null, "cross_refs": null, "figure_ref": null, "table_ref": "ec.xpt", "prompt_version": "P0_writer_pdf_v1.2+TOC_anchor+R1-R14"}
{"atom_id": "ig34_p0120_a004", "source": "SDTMIG v3.4 (no header footer).pdf", "source_short": "ig34", "page": 120, "atom_index_on_page": 4, "atom_type": "TABLE_ROW", "verbatim": "| 2 | ABC | EC | ABC7001 | 2 | BOTTLE A | EXCEPTION DOSE | Y | N | |", "parent_section": "§6.1.3.3 [Exposure/Exposure as Collected Examples]", "heading_level": null, "sibling_index": null, "cross_refs": null, "figure_ref": null, "table_ref": "ec.xpt", "prompt_version": "P0_writer_pdf_v1.2+TOC_anchor+R1-R14"}
{"atom_id": "ig34_p0120_a005", "source": "SDTMIG v3.4 (no header footer).pdf", "source_short": "ig34", "page": 120, "atom_index_on_page": 5, "atom_type": "TABLE_ROW", "verbatim": "| 3 | ABC | EC | ABC7001 | 3 | BOTTLE A | EXCEPTION DOSE | Y | Y | 2 |", "parent_section": "§6.1.3.3 [Exposure/Exposure as Collected Examples]", "heading_level": null, "sibling_index": null, "cross_refs": null, "figure_ref": null, "table_ref": "ec.xpt", "prompt_version": "P0_writer_pdf_v1.2+TOC_anchor+R1-R14"}
{"atom_id": "ig34_p0120_a006", "source": "SDTMIG v3.4 (no header footer).pdf", "source_short": "ig34", "page": 120, "atom_index_on_page": 6, "atom_type": "SENTENCE", "verbatim": "The EX dataset shows the unmasked treatment for this subject, \"DRUG X\", and represents dosing in nonoverlapping intervals of time.", "parent_section": "§6.1.3.3 [Exposure/Exposure as Collected Examples]", "heading_level": null, "sibling_index": null, "cross_refs": null, "figure_ref": null, "table_ref": null, "prompt_version": "P0_writer_pdf_v1.2+TOC_anchor+R1-R14"}
{"atom_id": "ig34_p0120_a007", "source": "SDTMIG v3.4 (no header footer).pdf", "source_short": "ig34", "page": 120, "atom_index_on_page": 7, "atom_type": "SENTENCE", "verbatim": "There is no EX record for the missed dose, but the missed dose is reflected in a gap between dates in the EX records.", "parent_section": "§6.1.3.3 [Exposure/Exposure as Collected Examples]", "heading_level": null, "sibling_index": null, "cross_refs": null, "figure_ref": null, "table_ref": null, "prompt_version": "P0_writer_pdf_v1.2+TOC_anchor+R1-R14"}
{"atom_id": "ig34_p0120_a008", "source": "SDTMIG v3.4 (no header footer).pdf", "source_short": "ig34", "page": 120, "atom_index_on_page": 8, "atom_type": "SENTENCE", "verbatim": "Row 1:  Shows the administration from first dose date to the day before the missed dose.", "parent_section": "§6.1.3.3 [Exposure/Exposure as Collected Examples]", "heading_level": null, "sibling_index": null, "cross_refs": null, "figure_ref": null, "table_ref": null, "prompt_version": "P0_writer_pdf_v1.2+TOC_anchor+R1-R14"}
{"atom_id": "ig34_p0120_a009", "source": "SDTMIG v3.4 (no header footer).pdf", "source_short": "ig34", "page": 120, "atom_index_on_page": 9, "atom_type": "SENTENCE", "verbatim": "Row 2:  Shows the doubled dose.", "parent_section": "§6.1.3.3 [Exposure/Exposure as Collected Examples]", "heading_level": null, "sibling_index": null, "cross_refs": null, "figure_ref": null, "table_ref": null, "prompt_version": "P0_writer_pdf_v1.2+TOC_anchor+R1-R14"}
{"atom_id": "ig34_p0120_a010", "source": "SDTMIG v3.4 (no header footer).pdf", "source_short": "ig34", "page": 120, "atom_index_on_page": 10, "atom_type": "SENTENCE", "verbatim": "Row 3:  Shows the remaining administrations to the last dose date.", "parent_section": "§6.1.3.3 [Exposure/Exposure as Collected Examples]", "heading_level": null, "sibling_index": null, "cross_refs": null, "figure_ref": null, "table_ref": null, "prompt_version": "P0_writer_pdf_v1.2+TOC_anchor+R1-R14"}
{"atom_id": "ig34_p0120_a011", "source": "SDTMIG v3.4 (no header footer).pdf", "source_short": "ig34", "page": 120, "atom_index_on_page": 11, "atom_type": "CODE_LITERAL", "verbatim": "ex.xpt", "parent_section": "§6.1.3.3 [Exposure/Exposure as Collected Examples]", "heading_level": null, "sibling_index": null, "cross_refs": null, "figure_ref": null, "table_ref": null, "prompt_version": "P0_writer_pdf_v1.2+TOC_anchor+R1-R14"}
{"atom_id": "ig34_p0120_a012", "source": "SDTMIG v3.4 (no header footer).pdf", "source_short": "ig34", "page": 120, "atom_index_on_page": 12, "atom_type": "TABLE_HEADER", "verbatim": "| Row | STUDYID | DOMAIN | USUBJID | EXSEQ | EXTRT | EXDOSE | EXDOSU | EXDOSFRM | EXDOSFRQ | EXROUTE | EPOCH | EXSTDTC | EXENDTC | EXSTDY | EXENDY |", "parent_section": "§6.1.3.3 [Exposure/Exposure as Collected Examples]", "heading_level": null, "sibling_index": null, "cross_refs": null, "figure_ref": null, "table_ref": "ex.xpt", "prompt_version": "P0_writer_pdf_v1.2+TOC_anchor+R1-R14"}
{"atom_id": "ig34_p0120_a013", "source": "SDTMIG v3.4 (no header footer).pdf", "source_short": "ig34", "page": 120, "atom_index_on_page": 13, "atom_type": "TABLE_ROW", "verbatim": "| 1 | ABC | EX | ABC7001 | 1 | DRUG X | 100 | mg | TABLET | QD | ORAL | TREATMENT | 2012-01-13 | 2012-01-16 | 1 | 4 |", "parent_section": "§6.1.3.3 [Exposure/Exposure as Collected Examples]", "heading_level": null, "sibling_index": null, "cross_refs": null, "figure_ref": null, "table_ref": "ex.xpt", "prompt_version": "P0_writer_pdf_v1.2+TOC_anchor+R1-R14"}
{"atom_id": "ig34_p0120_a014", "source": "SDTMIG v3.4 (no header footer).pdf", "source_short": "ig34", "page": 120, "atom_index_on_page": 14, "atom_type": "TABLE_ROW", "verbatim": "| 2 | ABC | EX | ABC7001 | 2 | DRUG X | 200 | mg | TABLET | QD | ORAL | TREATMENT | 2012-01-16 | 2012-01-16 | 4 | 4 |", "parent_section": "§6.1.3.3 [Exposure/Exposure as Collected Examples]", "heading_level": null, "sibling_index": null, "cross_refs": null, "figure_ref": null, "table_ref": "ex.xpt", "prompt_version": "P0_writer_pdf_v1.2+TOC_anchor+R1-R14"}
{"atom_id": "ig34_p0120_a015", "source": "SDTMIG v3.4 (no header footer).pdf", "source_short": "ig34", "page": 120, "atom_index_on_page": 15, "atom_type": "TABLE_ROW", "verbatim": "| 3 | ABC | EX | ABC7001 | 3 | DRUG X | 100 | mg | TABLET | QD | ORAL | TREATMENT | 2012-01-17 | 2012-01-20 | 5 | 8 |", "parent_section": "§6.1.3.3 [Exposure/Exposure as Collected Examples]", "heading_level": null, "sibling_index": null, "cross_refs": null, "figure_ref": null, "table_ref": "ex.xpt", "prompt_version": "P0_writer_pdf_v1.2+TOC_anchor+R1-R14"}
