{"atom_id": "ig34_p0166_a0001", "atom_type": "CODE_LITERAL", "verbatim": "te.xpt", "parent_section": "§6.2.4 Disposition (DS)", "heading_level": null, "sibling_index": null, "page": 166, "extracted_by": {"agent": "oh-my-claudecode:executor", "prompt_version": "P0_writer_pdf_v1.2_inline_R10-15_O26_NEW1-7_OptionE", "rerun_reason": "writer_17b_corruption_p166_167"}}
{"atom_id": "ig34_p0166_a0002", "atom_type": "TABLE_HEADER", "verbatim": "| Row | STUDYID | DOMAIN | ETCD | ELEMENT | TESTRL | TEENRL | TEDUR |", "parent_section": "§6.2.4 Disposition (DS)", "heading_level": null, "sibling_index": null, "page": 166, "extracted_by": {"agent": "oh-my-claudecode:executor", "prompt_version": "P0_writer_pdf_v1.2_inline_R10-15_O26_NEW1-7_OptionE", "rerun_reason": "writer_17b_corruption_p166_167"}}
{"atom_id": "ig34_p0166_a0003", "atom_type": "TABLE_ROW", "verbatim": "| 1 | DS10 | TE | SCRN | Screen | Informed Consent | Screening assessments are complete, up to 2 weeks after start of Element | |", "parent_section": "§6.2.4 Disposition (DS)", "heading_level": null, "sibling_index": null, "page": 166, "extracted_by": {"agent": "oh-my-claudecode:executor", "prompt_version": "P0_writer_pdf_v1.2_inline_R10-15_O26_NEW1-7_OptionE", "rerun_reason": "writer_17b_corruption_p166_167"}}
{"atom_id": "ig34_p0166_a0004", "atom_type": "TABLE_ROW", "verbatim": "| 2 | DS10 | TE | AB | Trt AB | First dose of treatment Element, where treatment is AB | 4 weeks after start of Element | P4W |", "parent_section": "§6.2.4 Disposition (DS)", "heading_level": null, "sibling_index": null, "page": 166, "extracted_by": {"agent": "oh-my-claudecode:executor", "prompt_version": "P0_writer_pdf_v1.2_inline_R10-15_O26_NEW1-7_OptionE", "rerun_reason": "writer_17b_corruption_p166_167"}}
{"atom_id": "ig34_p0166_a0005", "atom_type": "TABLE_ROW", "verbatim": "| 3 | DS10 | TE | ABC | Trt ABC | First dose of treatment Element, where treatment AB +C | 4 weeks after start of Element | P4W |", "parent_section": "§6.2.4 Disposition (DS)", "heading_level": null, "sibling_index": null, "page": 166, "extracted_by": {"agent": "oh-my-claudecode:executor", "prompt_version": "P0_writer_pdf_v1.2_inline_R10-15_O26_NEW1-7_OptionE", "rerun_reason": "writer_17b_corruption_p166_167"}}
{"atom_id": "ig34_p0166_a0006", "atom_type": "TABLE_ROW", "verbatim": "| 4 | DS10 | TE | FU | Follow-up | Four weeks after start of last treatment element | Death, withdrawal of consent, or loss to follow-up. | |", "parent_section": "§6.2.4 Disposition (DS)", "heading_level": null, "sibling_index": null, "page": 166, "extracted_by": {"agent": "oh-my-claudecode:executor", "prompt_version": "P0_writer_pdf_v1.2_inline_R10-15_O26_NEW1-7_OptionE", "rerun_reason": "writer_17b_corruption_p166_167"}}
{"atom_id": "ig34_p0166_a0007", "atom_type": "SENTENCE", "verbatim": "The TA dataset shows the trial design.", "parent_section": "§6.2.4 Disposition (DS)", "heading_level": null, "sibling_index": null, "page": 166, "extracted_by": {"agent": "oh-my-claudecode:executor", "prompt_version": "P0_writer_pdf_v1.2_inline_R10-15_O26_NEW1-7_OptionE", "rerun_reason": "writer_17b_corruption_p166_167"}}
{"atom_id": "ig34_p0166_a0008", "atom_type": "SENTENCE", "verbatim": "The sponsor chose to number elements starting with zero for the screening element.", "parent_section": "§6.2.4 Disposition (DS)", "heading_level": null, "sibling_index": null, "page": 166, "extracted_by": {"agent": "oh-my-claudecode:executor", "prompt_version": "P0_writer_pdf_v1.2_inline_R10-15_O26_NEW1-7_OptionE", "rerun_reason": "writer_17b_corruption_p166_167"}}
{"atom_id": "ig34_p0166_a0009", "atom_type": "SENTENCE", "verbatim": "For the AB arm, the TAETORD values match the cycle numbers.", "parent_section": "§6.2.4 Disposition (DS)", "heading_level": null, "sibling_index": null, "page": 166, "extracted_by": {"agent": "oh-my-claudecode:executor", "prompt_version": "P0_writer_pdf_v1.2_inline_R10-15_O26_NEW1-7_OptionE", "rerun_reason": "writer_17b_corruption_p166_167"}}
{"atom_id": "ig34_p0166_a0010", "atom_type": "SENTENCE", "verbatim": "For the ABC arm, if drug C is dropped, the subject may transition to an AB element or follow-up.", "parent_section": "§6.2.4 Disposition (DS)", "heading_level": null, "sibling_index": null, "page": 166, "extracted_by": {"agent": "oh-my-claudecode:executor", "prompt_version": "P0_writer_pdf_v1.2_inline_R10-15_O26_NEW1-7_OptionE", "rerun_reason": "writer_17b_corruption_p166_167"}}
{"atom_id": "ig34_p0166_a0011", "atom_type": "SENTENCE", "verbatim": "TAETORD values are not chronological for this arm such that elements with TAETORD values of \"2\" or \"5\" would be during \"Cycle 2\", elements with TAETORD values of \"3\" or \"6\" would be during \"Cycle 3\", and elements with TAETORD values of \"4\" or \"7\" would be during \"Cycle 4\".", "parent_section": "§6.2.4 Disposition (DS)", "heading_level": null, "sibling_index": null, "page": 166, "extracted_by": {"agent": "oh-my-claudecode:executor", "prompt_version": "P0_writer_pdf_v1.2_inline_R10-15_O26_NEW1-7_OptionE", "rerun_reason": "writer_17b_corruption_p166_167"}}
{"atom_id": "ig34_p0166_a0012", "atom_type": "CODE_LITERAL", "verbatim": "ta.xpt", "parent_section": "§6.2.4 Disposition (DS)", "heading_level": null, "sibling_index": null, "page": 166, "extracted_by": {"agent": "oh-my-claudecode:executor", "prompt_version": "P0_writer_pdf_v1.2_inline_R10-15_O26_NEW1-7_OptionE", "rerun_reason": "writer_17b_corruption_p166_167"}}
{"atom_id": "ig34_p0166_a0013", "atom_type": "TABLE_HEADER", "verbatim": "| Row | STUDYID | DOMAIN | ARMCD | ARM | TAETORD | ETCD | ELEMENT | TABRANCH | TATRANS | EPOCH |", "parent_section": "§6.2.4 Disposition (DS)", "heading_level": null, "sibling_index": null, "page": 166, "extracted_by": {"agent": "oh-my-claudecode:executor", "prompt_version": "P0_writer_pdf_v1.2_inline_R10-15_O26_NEW1-7_OptionE", "rerun_reason": "writer_17b_corruption_p166_167"}}
{"atom_id": "ig34_p0166_a0014", "atom_type": "TABLE_ROW", "verbatim": "| 1 | DS10 | TA | AB | AB | 0 | SCRN | Screen | Randomized to AB | | SCREENING |", "parent_section": "§6.2.4 Disposition (DS)", "heading_level": null, "sibling_index": null, "page": 166, "extracted_by": {"agent": "oh-my-claudecode:executor", "prompt_version": "P0_writer_pdf_v1.2_inline_R10-15_O26_NEW1-7_OptionE", "rerun_reason": "writer_17b_corruption_p166_167"}}
{"atom_id": "ig34_p0166_a0015", "atom_type": "TABLE_ROW", "verbatim": "| 2 | DS10 | TA | AB | AB | 1 | AB | Trt AB | | If disease progression, go to follow-up epoch. | TREATMENT |", "parent_section": "§6.2.4 Disposition (DS)", "heading_level": null, "sibling_index": null, "page": 166, "extracted_by": {"agent": "oh-my-claudecode:executor", "prompt_version": "P0_writer_pdf_v1.2_inline_R10-15_O26_NEW1-7_OptionE", "rerun_reason": "writer_17b_corruption_p166_167"}}
{"atom_id": "ig34_p0166_a0016", "atom_type": "TABLE_ROW", "verbatim": "| 3 | DS10 | TA | AB | AB | 2 | AB | Trt AB | | If disease progression, go to follow-up epoch. | TREATMENT |", "parent_section": "§6.2.4 Disposition (DS)", "heading_level": null, "sibling_index": null, "page": 166, "extracted_by": {"agent": "oh-my-claudecode:executor", "prompt_version": "P0_writer_pdf_v1.2_inline_R10-15_O26_NEW1-7_OptionE", "rerun_reason": "writer_17b_corruption_p166_167"}}
{"atom_id": "ig34_p0166_a0017", "atom_type": "TABLE_ROW", "verbatim": "| 4 | DS10 | TA | AB | AB | 3 | AB | Trt AB | | If disease progression, go to follow-up epoch. | TREATMENT |", "parent_section": "§6.2.4 Disposition (DS)", "heading_level": null, "sibling_index": null, "page": 166, "extracted_by": {"agent": "oh-my-claudecode:executor", "prompt_version": "P0_writer_pdf_v1.2_inline_R10-15_O26_NEW1-7_OptionE", "rerun_reason": "writer_17b_corruption_p166_167"}}
{"atom_id": "ig34_p0166_a0018", "atom_type": "TABLE_ROW", "verbatim": "| 5 | DS10 | TA | AB | AB | 4 | AB | Trt AB | | | TREATMENT |", "parent_section": "§6.2.4 Disposition (DS)", "heading_level": null, "sibling_index": null, "page": 166, "extracted_by": {"agent": "oh-my-claudecode:executor", "prompt_version": "P0_writer_pdf_v1.2_inline_R10-15_O26_NEW1-7_OptionE", "rerun_reason": "writer_17b_corruption_p166_167"}}
{"atom_id": "ig34_p0166_a0019", "atom_type": "TABLE_ROW", "verbatim": "| 6 | DS10 | TA | AB | AB | 5 | FU | Follow-up | | | FOLLOW-UP |", "parent_section": "§6.2.4 Disposition (DS)", "heading_level": null, "sibling_index": null, "page": 166, "extracted_by": {"agent": "oh-my-claudecode:executor", "prompt_version": "P0_writer_pdf_v1.2_inline_R10-15_O26_NEW1-7_OptionE", "rerun_reason": "writer_17b_corruption_p166_167"}}
{"atom_id": "ig34_p0166_a0020", "atom_type": "TABLE_ROW", "verbatim": "| 7 | DS10 | TA | ABC | ABC | 0 | SCRN | Screen | Randomized to ABC | | SCREENING |", "parent_section": "§6.2.4 Disposition (DS)", "heading_level": null, "sibling_index": null, "page": 166, "extracted_by": {"agent": "oh-my-claudecode:executor", "prompt_version": "P0_writer_pdf_v1.2_inline_R10-15_O26_NEW1-7_OptionE", "rerun_reason": "writer_17b_corruption_p166_167"}}
{"atom_id": "ig34_p0166_a0021", "atom_type": "TABLE_ROW", "verbatim": "| 8 | DS10 | TA | ABC | ABC | 1 | ABC | Trt ABC | | If disease progression, go to follow-up epoch. If drug C is dropped, go to element with TAETORD = \"5\". | TREATMENT |", "parent_section": "§6.2.4 Disposition (DS)", "heading_level": null, "sibling_index": null, "page": 166, "extracted_by": {"agent": "oh-my-claudecode:executor", "prompt_version": "P0_writer_pdf_v1.2_inline_R10-15_O26_NEW1-7_OptionE", "rerun_reason": "writer_17b_corruption_p166_167"}}
{"atom_id": "ig34_p0166_a0022", "atom_type": "TABLE_ROW", "verbatim": "| 9 | DS10 | TA | ABC | ABC | 2 | ABC | Trt ABC | | If disease progression, go to follow-up epoch. If drug C is dropped, go to element with TAETORD = \"6\". | TREATMENT |", "parent_section": "§6.2.4 Disposition (DS)", "heading_level": null, "sibling_index": null, "page": 166, "extracted_by": {"agent": "oh-my-claudecode:executor", "prompt_version": "P0_writer_pdf_v1.2_inline_R10-15_O26_NEW1-7_OptionE", "rerun_reason": "writer_17b_corruption_p166_167"}}
{"atom_id": "ig34_p0166_a0023", "atom_type": "TABLE_ROW", "verbatim": "| 10 | DS10 | TA | ABC | ABC | 3 | ABC | Trt ABC | | If disease progression, go to follow-up epoch. If drug C is dropped, go to element with TAETORD = \"7\". | TREATMENT |", "parent_section": "§6.2.4 Disposition (DS)", "heading_level": null, "sibling_index": null, "page": 166, "extracted_by": {"agent": "oh-my-claudecode:executor", "prompt_version": "P0_writer_pdf_v1.2_inline_R10-15_O26_NEW1-7_OptionE", "rerun_reason": "writer_17b_corruption_p166_167"}}
{"atom_id": "ig34_p0166_a0024", "atom_type": "TABLE_ROW", "verbatim": "| 11 | DS10 | TA | ABC | ABC | 4 | ABC | Trt ABC | | Go to follow-up epoch. | TREATMENT |", "parent_section": "§6.2.4 Disposition (DS)", "heading_level": null, "sibling_index": null, "page": 166, "extracted_by": {"agent": "oh-my-claudecode:executor", "prompt_version": "P0_writer_pdf_v1.2_inline_R10-15_O26_NEW1-7_OptionE", "rerun_reason": "writer_17b_corruption_p166_167"}}
{"atom_id": "ig34_p0166_a0025", "atom_type": "TABLE_ROW", "verbatim": "| 12 | DS10 | TA | ABC | ABC | 5 | AB | Trt AB | | | TREATMENT |", "parent_section": "§6.2.4 Disposition (DS)", "heading_level": null, "sibling_index": null, "page": 166, "extracted_by": {"agent": "oh-my-claudecode:executor", "prompt_version": "P0_writer_pdf_v1.2_inline_R10-15_O26_NEW1-7_OptionE", "rerun_reason": "writer_17b_corruption_p166_167"}}
{"atom_id": "ig34_p0166_a0026", "atom_type": "TABLE_ROW", "verbatim": "| 13 | DS10 | TA | ABC | ABC | 6 | AB | Trt AB | | | TREATMENT |", "parent_section": "§6.2.4 Disposition (DS)", "heading_level": null, "sibling_index": null, "page": 166, "extracted_by": {"agent": "oh-my-claudecode:executor", "prompt_version": "P0_writer_pdf_v1.2_inline_R10-15_O26_NEW1-7_OptionE", "rerun_reason": "writer_17b_corruption_p166_167"}}
{"atom_id": "ig34_p0166_a0027", "atom_type": "TABLE_ROW", "verbatim": "| 14 | DS10 | TA | ABC | ABC | 7 | AB | Trt AB | | | TREATMENT |", "parent_section": "§6.2.4 Disposition (DS)", "heading_level": null, "sibling_index": null, "page": 166, "extracted_by": {"agent": "oh-my-claudecode:executor", "prompt_version": "P0_writer_pdf_v1.2_inline_R10-15_O26_NEW1-7_OptionE", "rerun_reason": "writer_17b_corruption_p166_167"}}
{"atom_id": "ig34_p0166_a0028", "atom_type": "TABLE_ROW", "verbatim": "| 15 | DS10 | TA | ABC | ABC | 8 | FU | Follow-up | | | FOLLOW-UP |", "parent_section": "§6.2.4 Disposition (DS)", "heading_level": null, "sibling_index": null, "page": 166, "extracted_by": {"agent": "oh-my-claudecode:executor", "prompt_version": "P0_writer_pdf_v1.2_inline_R10-15_O26_NEW1-7_OptionE", "rerun_reason": "writer_17b_corruption_p166_167"}}
{"atom_id": "ig34_p0166_a0029", "atom_type": "SENTENCE", "verbatim": "This example shows data for a subject who was randomized to treatment ABC.", "parent_section": "§6.2.4 Disposition (DS)", "heading_level": null, "sibling_index": null, "page": 166, "extracted_by": {"agent": "oh-my-claudecode:executor", "prompt_version": "P0_writer_pdf_v1.2_inline_R10-15_O26_NEW1-7_OptionE", "rerun_reason": "writer_17b_corruption_p166_167"}}
{"atom_id": "ig34_p0166_a0030", "atom_type": "SENTENCE", "verbatim": "Drug C was dropped after cycle 2 due to toxicity associated with drug C.", "parent_section": "§6.2.4 Disposition (DS)", "heading_level": null, "sibling_index": null, "page": 166, "extracted_by": {"agent": "oh-my-claudecode:executor", "prompt_version": "P0_writer_pdf_v1.2_inline_R10-15_O26_NEW1-7_OptionE", "rerun_reason": "writer_17b_corruption_p166_167"}}
{"atom_id": "ig34_p0166_a0031", "atom_type": "SENTENCE", "verbatim": "Treatment with drugs A and B was stopped after cycle 3 due to disease progression.", "parent_section": "§6.2.4 Disposition (DS)", "heading_level": null, "sibling_index": null, "page": 166, "extracted_by": {"agent": "oh-my-claudecode:executor", "prompt_version": "P0_writer_pdf_v1.2_inline_R10-15_O26_NEW1-7_OptionE", "rerun_reason": "writer_17b_corruption_p166_167"}}
{"atom_id": "ig34_p0166_a0032", "atom_type": "SENTENCE", "verbatim": "The subject died during follow-up.", "parent_section": "§6.2.4 Disposition (DS)", "heading_level": null, "sibling_index": null, "page": 166, "extracted_by": {"agent": "oh-my-claudecode:executor", "prompt_version": "P0_writer_pdf_v1.2_inline_R10-15_O26_NEW1-7_OptionE", "rerun_reason": "writer_17b_corruption_p166_167"}}
{"atom_id": "ig34_p0166_a0033", "atom_type": "SENTENCE", "verbatim": "The SE dataset records the elements this subject experienced.", "parent_section": "§6.2.4 Disposition (DS)", "heading_level": null, "sibling_index": null, "page": 166, "extracted_by": {"agent": "oh-my-claudecode:executor", "prompt_version": "P0_writer_pdf_v1.2_inline_R10-15_O26_NEW1-7_OptionE", "rerun_reason": "writer_17b_corruption_p166_167"}}
{"atom_id": "ig34_p0166_a0034", "atom_type": "LIST_ITEM", "verbatim": "Rows 1-4: The subject participated in the screening epoch and 3 elements of the treatment epoch.", "parent_section": "§6.2.4 Disposition (DS)", "heading_level": null, "sibling_index": null, "page": 166, "extracted_by": {"agent": "oh-my-claudecode:executor", "prompt_version": "P0_writer_pdf_v1.2_inline_R10-15_O26_NEW1-7_OptionE", "rerun_reason": "writer_17b_corruption_p166_167"}}
{"atom_id": "ig34_p0166_a0035", "atom_type": "LIST_ITEM", "verbatim": "Row 5: The subject's fifth element was not \"ABC\" or \"AB\", as would have been expected if they recieved all 4 cycles of therapy, but \"FU\".", "parent_section": "§6.2.4 Disposition (DS)", "heading_level": null, "sibling_index": null, "page": 166, "extracted_by": {"agent": "oh-my-claudecode:executor", "prompt_version": "P0_writer_pdf_v1.2_inline_R10-15_O26_NEW1-7_OptionE", "rerun_reason": "writer_17b_corruption_p166_167"}}
{"atom_id": "ig34_p0166_a0036", "atom_type": "CODE_LITERAL", "verbatim": "se.xpt", "parent_section": "§6.2.4 Disposition (DS)", "heading_level": null, "sibling_index": null, "page": 166, "extracted_by": {"agent": "oh-my-claudecode:executor", "prompt_version": "P0_writer_pdf_v1.2_inline_R10-15_O26_NEW1-7_OptionE", "rerun_reason": "writer_17b_corruption_p166_167"}}
{"atom_id": "ig34_p0166_a0037", "atom_type": "TABLE_HEADER", "verbatim": "| Row | STUDYID | DOMAIN | USUBJID | SESEQ | ETCD | SESTDTC | SEENDTC | SEUPDES | TAETORD | EPOCH |", "parent_section": "§6.2.4 Disposition (DS)", "heading_level": null, "sibling_index": null, "page": 166, "extracted_by": {"agent": "oh-my-claudecode:executor", "prompt_version": "P0_writer_pdf_v1.2_inline_R10-15_O26_NEW1-7_OptionE", "rerun_reason": "writer_17b_corruption_p166_167"}}
{"atom_id": "ig34_p0166_a0038", "atom_type": "TABLE_ROW", "verbatim": "| 1 | DS10 | SE | 101 | 1 | SCRN | 2015-01-21 | 2015-02-01 | | 0 | SCREENING |", "parent_section": "§6.2.4 Disposition (DS)", "heading_level": null, "sibling_index": null, "page": 166, "extracted_by": {"agent": "oh-my-claudecode:executor", "prompt_version": "P0_writer_pdf_v1.2_inline_R10-15_O26_NEW1-7_OptionE", "rerun_reason": "writer_17b_corruption_p166_167"}}
{"atom_id": "ig34_p0166_a0039", "atom_type": "TABLE_ROW", "verbatim": "| 2 | DS10 | SE | 101 | 2 | ABC | 2015-02-01 | 2015-03-01 | | 1 | TREATMENT |", "parent_section": "§6.2.4 Disposition (DS)", "heading_level": null, "sibling_index": null, "page": 166, "extracted_by": {"agent": "oh-my-claudecode:executor", "prompt_version": "P0_writer_pdf_v1.2_inline_R10-15_O26_NEW1-7_OptionE", "rerun_reason": "writer_17b_corruption_p166_167"}}
{"atom_id": "ig34_p0166_a0040", "atom_type": "TABLE_ROW", "verbatim": "| 3 | DS10 | SE | 101 | 3 | ABC | 2015-03-01 | 2015-03-29 | | 2 | TREATMENT |", "parent_section": "§6.2.4 Disposition (DS)", "heading_level": null, "sibling_index": null, "page": 166, "extracted_by": {"agent": "oh-my-claudecode:executor", "prompt_version": "P0_writer_pdf_v1.2_inline_R10-15_O26_NEW1-7_OptionE", "rerun_reason": "writer_17b_corruption_p166_167"}}
{"atom_id": "ig34_p0166_a0041", "atom_type": "TABLE_ROW", "verbatim": "| 4 | DS10 | SE | 101 | 4 | AB | 2015-03-29 | 2015-04-26 | | 6 | TREATMENT |", "parent_section": "§6.2.4 Disposition (DS)", "heading_level": null, "sibling_index": null, "page": 166, "extracted_by": {"agent": "oh-my-claudecode:executor", "prompt_version": "P0_writer_pdf_v1.2_inline_R10-15_O26_NEW1-7_OptionE", "rerun_reason": "writer_17b_corruption_p166_167"}}
{"atom_id": "ig34_p0166_a0042", "atom_type": "TABLE_ROW", "verbatim": "| 5 | DS10 | SE | 101 | 5 | FU | 2015-04-26 | 2015-09-19 | | 8 | FOLLOW-UP |", "parent_section": "§6.2.4 Disposition (DS)", "heading_level": null, "sibling_index": null, "page": 166, "extracted_by": {"agent": "oh-my-claudecode:executor", "prompt_version": "P0_writer_pdf_v1.2_inline_R10-15_O26_NEW1-7_OptionE", "rerun_reason": "writer_17b_corruption_p166_167"}}
{"atom_id": "ig34_p0167_a0001", "atom_type": "SENTENCE", "verbatim": "In this study, disposition of each treatment was collected, and disposition of study participation was collected for each epoch of the trial.", "parent_section": "§6.2.4 Disposition (DS)", "heading_level": null, "sibling_index": null, "page": 167, "extracted_by": {"agent": "oh-my-claudecode:executor", "prompt_version": "P0_writer_pdf_v1.2_inline_R10-15_O26_NEW1-7_OptionE", "rerun_reason": "writer_17b_corruption_p166_167"}}
{"atom_id": "ig34_p0167_a0002", "atom_type": "SENTENCE", "verbatim": "The date of disposition for study treatment was defined as the date of the last dose of that treatment.", "parent_section": "§6.2.4 Disposition (DS)", "heading_level": null, "sibling_index": null, "page": 167, "extracted_by": {"agent": "oh-my-claudecode:executor", "prompt_version": "P0_writer_pdf_v1.2_inline_R10-15_O26_NEW1-7_OptionE", "rerun_reason": "writer_17b_corruption_p166_167"}}
{"atom_id": "ig34_p0167_a0003", "atom_type": "LIST_ITEM", "verbatim": "Rows 1-2: Show that informed consent was obtained and randomization occurred during the screening epoch.", "parent_section": "§6.2.4 Disposition (DS)", "heading_level": null, "sibling_index": null, "page": 167, "extracted_by": {"agent": "oh-my-claudecode:executor", "prompt_version": "P0_writer_pdf_v1.2_inline_R10-15_O26_NEW1-7_OptionE", "rerun_reason": "writer_17b_corruption_p166_167"}}
{"atom_id": "ig34_p0167_a0004", "atom_type": "LIST_ITEM", "verbatim": "Row 3: Shows disposition of study participation for the screening epoch. The subject completed this epoch.", "parent_section": "§6.2.4 Disposition (DS)", "heading_level": null, "sibling_index": null, "page": 167, "extracted_by": {"agent": "oh-my-claudecode:executor", "prompt_version": "P0_writer_pdf_v1.2_inline_R10-15_O26_NEW1-7_OptionE", "rerun_reason": "writer_17b_corruption_p166_167"}}
{"atom_id": "ig34_p0167_a0005", "atom_type": "LIST_ITEM", "verbatim": "Row 4: Shows that drug C was ended during the second cycle (TAETORD = \"2\") of the treatment epoch.", "parent_section": "§6.2.4 Disposition (DS)", "heading_level": null, "sibling_index": null, "page": 167, "extracted_by": {"agent": "oh-my-claudecode:executor", "prompt_version": "P0_writer_pdf_v1.2_inline_R10-15_O26_NEW1-7_OptionE", "rerun_reason": "writer_17b_corruption_p166_167"}}
{"atom_id": "ig34_p0167_a0006", "atom_type": "LIST_ITEM", "verbatim": "Row 5: Shows that drugs A and B were ended on the same day during the third cycle (TAETORD = \"6\") of the treatment epoch.", "parent_section": "§6.2.4 Disposition (DS)", "heading_level": null, "sibling_index": null, "page": 167, "extracted_by": {"agent": "oh-my-claudecode:executor", "prompt_version": "P0_writer_pdf_v1.2_inline_R10-15_O26_NEW1-7_OptionE", "rerun_reason": "writer_17b_corruption_p166_167"}}
{"atom_id": "ig34_p0167_a0007", "atom_type": "LIST_ITEM", "verbatim": "Row 6: Shows disposition of study participation in the treatment epoch. The subject did not complete treatment, due to disease progression. The date of disposition of the treatment epoch, DSSTDTC, is the date the subject started the follow-up epoch. For this study, that was defined as 4 weeks after the start of the last treatment element. This means that although the subject's last dose of treatment was \"2015-04-14\", the end of the treatment period was later, on \"2015-04-26\", when the subject started the follow-up treatment.", "parent_section": "§6.2.4 Disposition (DS)", "heading_level": null, "sibling_index": null, "page": 167, "extracted_by": {"agent": "oh-my-claudecode:executor", "prompt_version": "P0_writer_pdf_v1.2_inline_R10-15_O26_NEW1-7_OptionE", "rerun_reason": "writer_17b_corruption_p166_167"}}
{"atom_id": "ig34_p0167_a0008", "atom_type": "LIST_ITEM", "verbatim": "Row 7: Shows disposition of study participation in the follow-up epoch. The subject died.", "parent_section": "§6.2.4 Disposition (DS)", "heading_level": null, "sibling_index": null, "page": 167, "extracted_by": {"agent": "oh-my-claudecode:executor", "prompt_version": "P0_writer_pdf_v1.2_inline_R10-15_O26_NEW1-7_OptionE", "rerun_reason": "writer_17b_corruption_p166_167"}}
{"atom_id": "ig34_p0167_a0009", "atom_type": "CODE_LITERAL", "verbatim": "ds.xpt", "parent_section": "§6.2.4 Disposition (DS)", "heading_level": null, "sibling_index": null, "page": 167, "extracted_by": {"agent": "oh-my-claudecode:executor", "prompt_version": "P0_writer_pdf_v1.2_inline_R10-15_O26_NEW1-7_OptionE", "rerun_reason": "writer_17b_corruption_p166_167"}}
{"atom_id": "ig34_p0167_a0010", "atom_type": "TABLE_HEADER", "verbatim": "| Row | STUDYID | DOMAIN | USUBJID | DSEQ | DSTERM | DSDECOD | DSCAT | DSSCAT | TAETORD | EPOCH | DSSTDTC |", "parent_section": "§6.2.4 Disposition (DS)", "heading_level": null, "sibling_index": null, "page": 167, "extracted_by": {"agent": "oh-my-claudecode:executor", "prompt_version": "P0_writer_pdf_v1.2_inline_R10-15_O26_NEW1-7_OptionE", "rerun_reason": "writer_17b_corruption_p166_167"}}
{"atom_id": "ig34_p0167_a0011", "atom_type": "TABLE_ROW", "verbatim": "| 1 | DS10 | DS | 101 | 1 | INFORMED CONSENT OBTAINED | INFORMED CONSENT OBTAINED | PROTOCOL MILESTONE | | 1 | SCREENING | 2015-01-21 |", "parent_section": "§6.2.4 Disposition (DS)", "heading_level": null, "sibling_index": null, "page": 167, "extracted_by": {"agent": "oh-my-claudecode:executor", "prompt_version": "P0_writer_pdf_v1.2_inline_R10-15_O26_NEW1-7_OptionE", "rerun_reason": "writer_17b_corruption_p166_167"}}
{"atom_id": "ig34_p0167_a0012", "atom_type": "TABLE_ROW", "verbatim": "| 2 | DS10 | DS | 101 | 2 | RANDOMIZED | RANDOMIZED | PROTOCOL MILESTONE | | 1 | SCREENING | 2015-02-01 |", "parent_section": "§6.2.4 Disposition (DS)", "heading_level": null, "sibling_index": null, "page": 167, "extracted_by": {"agent": "oh-my-claudecode:executor", "prompt_version": "P0_writer_pdf_v1.2_inline_R10-15_O26_NEW1-7_OptionE", "rerun_reason": "writer_17b_corruption_p166_167"}}
{"atom_id": "ig34_p0167_a0013", "atom_type": "TABLE_ROW", "verbatim": "| 3 | DS10 | DS | 101 | 3 | COMPLETED | COMPLETED | DISPOSITION EVENT | STUDY PARTICIPATION | 1 | SCREENING | 2015-02-01 |", "parent_section": "§6.2.4 Disposition (DS)", "heading_level": null, "sibling_index": null, "page": 167, "extracted_by": {"agent": "oh-my-claudecode:executor", "prompt_version": "P0_writer_pdf_v1.2_inline_R10-15_O26_NEW1-7_OptionE", "rerun_reason": "writer_17b_corruption_p166_167"}}
{"atom_id": "ig34_p0167_a0014", "atom_type": "TABLE_ROW", "verbatim": "| 4 | DS10 | DS | 101 | 4 | Toxicity | ADVERSE EVENT | DISPOSITION EVENT | DRUG C | 2 | TREATMENT | 2015-03-06 |", "parent_section": "§6.2.4 Disposition (DS)", "heading_level": null, "sibling_index": null, "page": 167, "extracted_by": {"agent": "oh-my-claudecode:executor", "prompt_version": "P0_writer_pdf_v1.2_inline_R10-15_O26_NEW1-7_OptionE", "rerun_reason": "writer_17b_corruption_p166_167"}}
{"atom_id": "ig34_p0167_a0015", "atom_type": "TABLE_ROW", "verbatim": "| 5 | DS10 | DS | 101 | 5 | Disease progression | PROGRESSIVE DISEASE | DISPOSITION EVENT | DRUGS A & B | 6 | TREATMENT | 2015-04-14 |", "parent_section": "§6.2.4 Disposition (DS)", "heading_level": null, "sibling_index": null, "page": 167, "extracted_by": {"agent": "oh-my-claudecode:executor", "prompt_version": "P0_writer_pdf_v1.2_inline_R10-15_O26_NEW1-7_OptionE", "rerun_reason": "writer_17b_corruption_p166_167"}}
{"atom_id": "ig34_p0167_a0016", "atom_type": "TABLE_ROW", "verbatim": "| 6 | DS10 | DS | 101 | 6 | Disease progression | PROGRESSIVE DISEASE | DISPOSITION EVENT | STUDY PARTICIPATION | 6 | TREATMENT | 2015-04-26 |", "parent_section": "§6.2.4 Disposition (DS)", "heading_level": null, "sibling_index": null, "page": 167, "extracted_by": {"agent": "oh-my-claudecode:executor", "prompt_version": "P0_writer_pdf_v1.2_inline_R10-15_O26_NEW1-7_OptionE", "rerun_reason": "writer_17b_corruption_p166_167"}}
{"atom_id": "ig34_p0167_a0017", "atom_type": "TABLE_ROW", "verbatim": "| 7 | DS10 | DS | 101 | 7 | Death due to cancer | DEATH | DISPOSITION EVENT | STUDY PARTICIPATION | 8 | FOLLOW-UP | 2015-09-19 |", "parent_section": "§6.2.4 Disposition (DS)", "heading_level": null, "sibling_index": null, "page": 167, "extracted_by": {"agent": "oh-my-claudecode:executor", "prompt_version": "P0_writer_pdf_v1.2_inline_R10-15_O26_NEW1-7_OptionE", "rerun_reason": "writer_17b_corruption_p166_167"}}
{"atom_id": "ig34_p0167_a0018", "atom_type": "HEADING", "verbatim": "6.2.5 Healthcare Encounters (HO)", "parent_section": "§6.2 [MODELS FOR EVENTS DOMAINS]", "heading_level": 3, "sibling_index": 5, "page": 167, "extracted_by": {"agent": "oh-my-claudecode:executor", "prompt_version": "P0_writer_pdf_v1.2_inline_R10-15_O26_NEW1-7_OptionE", "rerun_reason": "writer_17b_corruption_p166_167"}}
{"atom_id": "ig34_p0167_a0019", "atom_type": "HEADING", "verbatim": "HO – Description/Overview", "parent_section": "§6.2.5 Healthcare Encounters (HO)", "heading_level": 4, "sibling_index": 1, "page": 167, "extracted_by": {"agent": "oh-my-claudecode:executor", "prompt_version": "P0_writer_pdf_v1.2_inline_R10-15_O26_NEW1-7_OptionE", "rerun_reason": "writer_17b_corruption_p166_167"}}
{"atom_id": "ig34_p0167_a0020", "atom_type": "SENTENCE", "verbatim": "An events domain that contains data for inpatient and outpatient healthcare events (e.g., hospitalization, nursing home stay, rehabilitation facility stay, ambulatory surgery).", "parent_section": "§6.2.5 Healthcare Encounters (HO)", "heading_level": null, "sibling_index": null, "page": 167, "extracted_by": {"agent": "oh-my-claudecode:executor", "prompt_version": "P0_writer_pdf_v1.2_inline_R10-15_O26_NEW1-7_OptionE", "rerun_reason": "writer_17b_corruption_p166_167"}}
{"atom_id": "ig34_p0167_a0021", "atom_type": "HEADING", "verbatim": "HO – Specification", "parent_section": "§6.2.5 Healthcare Encounters (HO)", "heading_level": 4, "sibling_index": 2, "page": 167, "extracted_by": {"agent": "oh-my-claudecode:executor", "prompt_version": "P0_writer_pdf_v1.2_inline_R10-15_O26_NEW1-7_OptionE", "rerun_reason": "writer_17b_corruption_p166_167"}}
{"atom_id": "ig34_p0167_a0022", "atom_type": "CODE_LITERAL", "verbatim": "ho.xpt, Healthcare Encounters — Events. One record per healthcare encounter per subject, Tabulation.", "parent_section": "§6.2.5 Healthcare Encounters (HO)", "heading_level": null, "sibling_index": null, "page": 167, "extracted_by": {"agent": "oh-my-claudecode:executor", "prompt_version": "P0_writer_pdf_v1.2_inline_R10-15_O26_NEW1-7_OptionE", "rerun_reason": "writer_17b_corruption_p166_167"}}
{"atom_id": "ig34_p0167_a0023", "atom_type": "TABLE_HEADER", "verbatim": "| Variable Name | Variable Label | Type | Controlled Terms, Codelist or Format¹ | Role | CDISC Notes | Core |", "parent_section": "§6.2.5 Healthcare Encounters (HO)", "heading_level": null, "sibling_index": null, "page": 167, "extracted_by": {"agent": "oh-my-claudecode:executor", "prompt_version": "P0_writer_pdf_v1.2_inline_R10-15_O26_NEW1-7_OptionE", "rerun_reason": "writer_17b_corruption_p166_167"}}
{"atom_id": "ig34_p0167_a0024", "atom_type": "TABLE_ROW", "verbatim": "| STUDYID | Study Identifier | Char | | Identifier | Unique identifier for a study. | Req |", "parent_section": "§6.2.5 Healthcare Encounters (HO)", "heading_level": null, "sibling_index": null, "page": 167, "extracted_by": {"agent": "oh-my-claudecode:executor", "prompt_version": "P0_writer_pdf_v1.2_inline_R10-15_O26_NEW1-7_OptionE", "rerun_reason": "writer_17b_corruption_p166_167"}}
{"atom_id": "ig34_p0167_a0025", "atom_type": "TABLE_ROW", "verbatim": "| DOMAIN | Domain Abbreviation | Char | HO | Identifier | Two-character abbreviation for the domain. | Req |", "parent_section": "§6.2.5 Healthcare Encounters (HO)", "heading_level": null, "sibling_index": null, "page": 167, "extracted_by": {"agent": "oh-my-claudecode:executor", "prompt_version": "P0_writer_pdf_v1.2_inline_R10-15_O26_NEW1-7_OptionE", "rerun_reason": "writer_17b_corruption_p166_167"}}
{"atom_id": "ig34_p0168_a0001", "atom_type": "TABLE_ROW", "verbatim": "| USUBJID | Unique Subject Identifier | Char | | Identifier | Identifier used to uniquely identify a subject across all studies for all applications or submissions involving the product. | Req |", "parent_section": "§6.2.5 Healthcare Encounters (HO)", "heading_level": null, "sibling_index": null, "page": 168, "extracted_by": {"agent": "oh-my-claudecode:writer", "prompt_version": "P0_writer_pdf_v1.2_inline_R10-15_O26_NEW1-7"}}
{"atom_id": "ig34_p0168_a0002", "atom_type": "TABLE_ROW", "verbatim": "| TIOSEQ | Sequence Number | Num | | Identifier | Sequence number given to ensure uniqueness of subject records within a domain. May be any valid number. | Req |", "parent_section": "§6.2.5 Healthcare Encounters (HO)", "heading_level": null, "sibling_index": null, "page": 168, "extracted_by": {"agent": "oh-my-claudecode:writer", "prompt_version": "P0_writer_pdf_v1.2_inline_R10-15_O26_NEW1-7"}}
{"atom_id": "ig34_p0168_a0003", "atom_type": "TABLE_ROW", "verbatim": "| TIOGRIPID | Group ID | Char | | Identifier | Used to tie together a block of related records in a single domain for a subject. | Perm |", "parent_section": "§6.2.5 Healthcare Encounters (HO)", "heading_level": null, "sibling_index": null, "page": 168, "extracted_by": {"agent": "oh-my-claudecode:writer", "prompt_version": "P0_writer_pdf_v1.2_inline_R10-15_O26_NEW1-7"}}
{"atom_id": "ig34_p0168_a0004", "atom_type": "TABLE_ROW", "verbatim": "| HIOREFID | Reference ID | Char | | Identifier | Sponsor identifier for a healthcare encounter. | Perm |", "parent_section": "§6.2.5 Healthcare Encounters (HO)", "heading_level": null, "sibling_index": null, "page": 168, "extracted_by": {"agent": "oh-my-claudecode:writer", "prompt_version": "P0_writer_pdf_v1.2_inline_R10-15_O26_NEW1-7"}}
{"atom_id": "ig34_p0168_a0005", "atom_type": "TABLE_ROW", "verbatim": "| HIOSIPID | Sponsor-Defined Identifier | Char | | Identifier | Sponsor-defined identifier. May be preprinted on the CRF as an explicit line identifier or defined in the sponsor's operational database. Example: Line number on a Healthcare Encounters CRF page. | Perm |", "parent_section": "§6.2.5 Healthcare Encounters (HO)", "heading_level": null, "sibling_index": null, "page": 168, "extracted_by": {"agent": "oh-my-claudecode:writer", "prompt_version": "P0_writer_pdf_v1.2_inline_R10-15_O26_NEW1-7"}}
{"atom_id": "ig34_p0168_a0006", "atom_type": "TABLE_ROW", "verbatim": "| HOTERM | Healthcare Encounter Term | Char | | Topic | Encounters CRF page. Verbatim or preprinted CRF term for the healthcare encounter. | Req |", "parent_section": "§6.2.5 Healthcare Encounters (HO)", "heading_level": null, "sibling_index": null, "page": 168, "extracted_by": {"agent": "oh-my-claudecode:writer", "prompt_version": "P0_writer_pdf_v1.2_inline_R10-15_O26_NEW1-7"}}
{"atom_id": "ig34_p0168_a0007", "atom_type": "TABLE_ROW", "verbatim": "| TIODECOD | Dictionary-Derived Term | Char | (HODECOD) | Synonym | Dictionary or sponsor-defined derived text description of HOTERM or the modified topic variable (HOMODIFY'). | Perm |", "parent_section": "§6.2.5 Healthcare Encounters (HO)", "heading_level": null, "sibling_index": null, "page": 168, "extracted_by": {"agent": "oh-my-claudecode:writer", "prompt_version": "P0_writer_pdf_v1.2_inline_R10-15_O26_NEW1-7"}}
{"atom_id": "ig34_p0168_a0008", "atom_type": "TABLE_ROW", "verbatim": "| HOCAT | Category for Healthcare Encounter | Char | * | Grouping Qualifier | Used to define a category of topic-related values. | Perm |", "parent_section": "§6.2.5 Healthcare Encounters (HO)", "heading_level": null, "sibling_index": null, "page": 168, "extracted_by": {"agent": "oh-my-claudecode:writer", "prompt_version": "P0_writer_pdf_v1.2_inline_R10-15_O26_NEW1-7"}}
{"atom_id": "ig34_p0168_a0009", "atom_type": "TABLE_ROW", "verbatim": "| HOSCAT | Subcategory for Healthcare Encounter | Char | * | Grouping Qualifier | A further categorization of HOCAT values. | Perm |", "parent_section": "§6.2.5 Healthcare Encounters (HO)", "heading_level": null, "sibling_index": null, "page": 168, "extracted_by": {"agent": "oh-my-claudecode:writer", "prompt_version": "P0_writer_pdf_v1.2_inline_R10-15_O26_NEW1-7"}}
{"atom_id": "ig34_p0168_a0010", "atom_type": "TABLE_ROW", "verbatim": "| HOPRESP | Pre-Specified Healthcare Encounter | Char | (NY) | Variable Qualifier | A value of \"Y\" indicates that this healthcare encounter event was prespecified on the CRF. Values are null for spontaneously reported events (i.e., those collected as free-text website terms). | Perm |", "parent_section": "§6.2.5 Healthcare Encounters (HO)", "heading_level": null, "sibling_index": null, "page": 168, "extracted_by": {"agent": "oh-my-claudecode:writer", "prompt_version": "P0_writer_pdf_v1.2_inline_R10-15_O26_NEW1-7"}}
{"atom_id": "ig34_p0168_a0011", "atom_type": "TABLE_ROW", "verbatim": "| HIOOCCUR | Healthcare Encounter Occurrence | Char | (NY) | Record Qualifier | Used when the occurrence of specific healthcare encounters is solicited, to indicate whether the encounter did or did not occur. Values are null for supplementary reported events. | Perm |", "parent_section": "§6.2.5 Healthcare Encounters (HO)", "heading_level": null, "sibling_index": null, "page": 168, "extracted_by": {"agent": "oh-my-claudecode:writer", "prompt_version": "P0_writer_pdf_v1.2_inline_R10-15_O26_NEW1-7"}}
{"atom_id": "ig34_p0168_a0012", "atom_type": "TABLE_ROW", "verbatim": "| HOSTAT | Completion Status | Char | (ND) | Record Qualifier | The status indicates that the prespecified question was not answered. | Perm |", "parent_section": "§6.2.5 Healthcare Encounters (HO)", "heading_level": null, "sibling_index": null, "page": 168, "extracted_by": {"agent": "oh-my-claudecode:writer", "prompt_version": "P0_writer_pdf_v1.2_inline_R10-15_O26_NEW1-7"}}
{"atom_id": "ig34_p0168_a0013", "atom_type": "TABLE_ROW", "verbatim": "| HOREASND | Reason Healthcare Encounter Not Done | Char | | Record Qualifier | Describes the reason data for a prespecified event were not collected. Used in conjunction with HOSTAT when value is \"NOT DONE\". | Perm |", "parent_section": "§6.2.5 Healthcare Encounters (HO)", "heading_level": null, "sibling_index": null, "page": 168, "extracted_by": {"agent": "oh-my-claudecode:writer", "prompt_version": "P0_writer_pdf_v1.2_inline_R10-15_O26_NEW1-7"}}
{"atom_id": "ig34_p0168_a0014", "atom_type": "TABLE_ROW", "verbatim": "| TAETORD | Planned Order of Element Within Arm | Num | | Timing | Number that gives the planned order of the element within the arm. | Perm |", "parent_section": "§6.2.5 Healthcare Encounters (HO)", "heading_level": null, "sibling_index": null, "page": 168, "extracted_by": {"agent": "oh-my-claudecode:writer", "prompt_version": "P0_writer_pdf_v1.2_inline_R10-15_O26_NEW1-7"}}
{"atom_id": "ig34_p0168_a0015", "atom_type": "TABLE_ROW", "verbatim": "| EPOCH | Epoch | Char | (EPOCH) | Timing | Epoch associated with the start date/time of the healthcare encounter. Examples: \"SCREENING\", \"TREATMENT\", \"FOLLOW-UP\" | Perm |", "parent_section": "§6.2.5 Healthcare Encounters (HO)", "heading_level": null, "sibling_index": null, "page": 168, "extracted_by": {"agent": "oh-my-claudecode:writer", "prompt_version": "P0_writer_pdf_v1.2_inline_R10-15_O26_NEW1-7"}}
{"atom_id": "ig34_p0168_a0016", "atom_type": "TABLE_ROW", "verbatim": "| HOCTC | Collection Date and Event Collection | Char | (collected as datetime interval | Timing | Collection date and time of the healthcare encounter. | Perm |", "parent_section": "§6.2.5 Healthcare Encounters (HO)", "heading_level": null, "sibling_index": null, "page": 168, "extracted_by": {"agent": "oh-my-claudecode:writer", "prompt_version": "P0_writer_pdf_v1.2_inline_R10-15_O26_NEW1-7"}}
{"atom_id": "ig34_p0168_a0017", "atom_type": "TABLE_ROW", "verbatim": "| HOSTDTC | Start Date/Time of Healthcare Encounter | Char | ISO 8601 datetime or interval | Timing | Start date/time of the healthcare encounter (e.g., date of admission) | Exp |", "parent_section": "§6.2.5 Healthcare Encounters (HO)", "heading_level": null, "sibling_index": null, "page": 168, "extracted_by": {"agent": "oh-my-claudecode:writer", "prompt_version": "P0_writer_pdf_v1.2_inline_R10-15_O26_NEW1-7"}}
{"atom_id": "ig34_p0168_a0018", "atom_type": "TABLE_ROW", "verbatim": "| HOENDTC | End Date/Time of Healthcare Encounter | Char | ISO 8601 datetime or interval | Timing | End date/time of the healthcare encounter (e.g., date of discharge). | Perm |", "parent_section": "§6.2.5 Healthcare Encounters (HO)", "heading_level": null, "sibling_index": null, "page": 168, "extracted_by": {"agent": "oh-my-claudecode:writer", "prompt_version": "P0_writer_pdf_v1.2_inline_R10-15_O26_NEW1-7"}}
{"atom_id": "ig34_p0168_a0019", "atom_type": "TABLE_ROW", "verbatim": "| HODY | Study Day of Event | Num | | Timing | Study day of event collection relative to the sponsor-defined RFSTDTC. | Perm |", "parent_section": "§6.2.5 Healthcare Encounters (HO)", "heading_level": null, "sibling_index": null, "page": 168, "extracted_by": {"agent": "oh-my-claudecode:writer", "prompt_version": "P0_writer_pdf_v1.2_inline_R10-15_O26_NEW1-7"}}
{"atom_id": "ig34_p0168_a0020", "atom_type": "TABLE_ROW", "verbatim": "| HOSTDBY | Study Day of Start of Healthcare Encounter | Num | | Timing | Study day of the start of the healthcare encounter relative to the sponsor-defined RFSTDTC. | Perm |", "parent_section": "§6.2.5 Healthcare Encounters (HO)", "heading_level": null, "sibling_index": null, "page": 168, "extracted_by": {"agent": "oh-my-claudecode:writer", "prompt_version": "P0_writer_pdf_v1.2_inline_R10-15_O26_NEW1-7"}}
{"atom_id": "ig34_p0168_a0021", "atom_type": "TABLE_ROW", "verbatim": "| HOENDY | Study Day of End of Healthcare Encounter | Num | | Timing | Study day of the end of the healthcare encounter relative to the sponsor-defined RFSTDTC. | Perm |", "parent_section": "§6.2.5 Healthcare Encounters (HO)", "heading_level": null, "sibling_index": null, "page": 168, "extracted_by": {"agent": "oh-my-claudecode:writer", "prompt_version": "P0_writer_pdf_v1.2_inline_R10-15_O26_NEW1-7"}}
{"atom_id": "ig34_p0168_a0022", "atom_type": "TABLE_ROW", "verbatim": "| HODUR | Duration of Healthcare Encounter | Char | ISO 8601 duration | Timing | Collected duration of the healthcare encounter. Used only if collected on the CRF and not derived from the start and end datetimes. Example: \"PT 2 days 2 hours\". | Perm |", "parent_section": "§6.2.5 Healthcare Encounters (HO)", "heading_level": null, "sibling_index": null, "page": 168, "extracted_by": {"agent": "oh-my-claudecode:writer", "prompt_version": "P0_writer_pdf_v1.2_inline_R10-15_O26_NEW1-7"}}
{"atom_id": "ig34_p0168_a0023", "atom_type": "TABLE_ROW", "verbatim": "| HOSTRTPT | Start Relative to Reference Time Point | Char | (STERPT) | Timing | Identifies the start of the observation as being before or after the sponsor-defined reference time point defined by variable =STRTPT. Timing Variables. | Perm |", "parent_section": "§6.2.5 Healthcare Encounters (HO)", "heading_level": null, "sibling_index": null, "page": 168, "extracted_by": {"agent": "oh-my-claudecode:writer", "prompt_version": "P0_writer_pdf_v1.2_inline_R10-15_O26_NEW1-7"}}
{"atom_id": "ig34_p0168_a0024", "atom_type": "TABLE_ROW", "verbatim": "| HOSTIPT | Start Reference Time Point | Char | | Timing | Description or date/time in ISO 8601 character format of the sponsor-defined reference point referred to by STRTPT. Examples: \"2003-12-15\", \"VISIT 1\". | Perm |", "parent_section": "§6.2.5 Healthcare Encounters (HO)", "heading_level": null, "sibling_index": null, "page": 168, "extracted_by": {"agent": "oh-my-claudecode:writer", "prompt_version": "P0_writer_pdf_v1.2_inline_R10-15_O26_NEW1-7"}}
{"atom_id": "ig34_p0169_a0001", "atom_type": "TABLE_ROW", "verbatim": "| HOENRTPT | End Relative to Reference Time Point | Char | (STERPT) | Timing | Identifies the end of the event as being before or after the reference time point defined by variable HOENTPT. Not all values of the codelist are allowable for this variable. See Section 4.4.7, Use of Relative Timing Variables. | Perm |", "parent_section": "§6.2.5 Healthcare Encounters (HO)", "heading_level": null, "sibling_index": null, "page": 169, "extracted_by": {"agent": "oh-my-claudecode:writer", "prompt_version": "P0_writer_pdf_v1.2_inline_R10-15_O26_NEW1-7"}}
{"atom_id": "ig34_p0169_a0002", "atom_type": "TABLE_ROW", "verbatim": "| HOENTPT | End Reference Time Point | Char | | Timing | Description or date/time in ISO 8601 character format of the reference point referred to by HOENTPT. Examples: \"2003-12-25\", \"VISIT 2\". | Perm |", "parent_section": "§6.2.5 Healthcare Encounters (HO)", "heading_level": null, "sibling_index": null, "page": 169, "extracted_by": {"agent": "oh-my-claudecode:writer", "prompt_version": "P0_writer_pdf_v1.2_inline_R10-15_O26_NEW1-7"}}
{"atom_id": "ig34_p0169_a0003", "atom_type": "SENTENCE", "verbatim": "¹In this column, an asterisk (*) indicates that the variable may be subject to controlled terminology.", "parent_section": "§6.2.5 Healthcare Encounters (HO)", "heading_level": null, "sibling_index": null, "page": 169, "extracted_by": {"agent": "oh-my-claudecode:writer", "prompt_version": "P0_writer_pdf_v1.2_inline_R10-15_O26_NEW1-7"}}
{"atom_id": "ig34_p0169_a0004", "atom_type": "HEADING", "verbatim": "HO – Assumptions", "parent_section": "§6.2.5 Healthcare Encounters (HO)", "heading_level": 4, "sibling_index": 3, "page": 169, "extracted_by": {"agent": "oh-my-claudecode:writer", "prompt_version": "P0_writer_pdf_v1.2_inline_R10-15_O26_NEW1-7"}}
{"atom_id": "ig34_p0169_a0005", "atom_type": "LIST_ITEM", "verbatim": "The Healthcare Encounters (HO) dataset includes inpatient and outpatient healthcare events (e.g., hospitalizations, nursing home stays, rehabilitation facility stays, ambulatory surgery).", "parent_section": "§6.2.5 Healthcare Encounters (HO)", "heading_level": null, "sibling_index": null, "page": 169, "extracted_by": {"agent": "oh-my-claudecode:writer", "prompt_version": "P0_writer_pdf_v1.2_inline_R10-15_O26_NEW1-7"}}
{"atom_id": "ig34_p0169_a0006", "atom_type": "LIST_ITEM", "verbatim": "Values of HOTERM typically describe the location or place of the healthcare encounter (e.g., \"HOSPITAL\" rather than \"HOSPITALIZATION\"). HOSTDTC should represent the start or admission date and HOENDTC the end or discharge date.", "parent_section": "§6.2.5 Healthcare Encounters (HO)", "heading_level": null, "sibling_index": null, "page": 169, "extracted_by": {"agent": "oh-my-claudecode:writer", "prompt_version": "P0_writer_pdf_v1.2_inline_R10-15_O26_NEW1-7"}}
{"atom_id": "ig34_p0169_a0007", "atom_type": "LIST_ITEM", "verbatim": "Data collected about healthcare encounters may include the reason for the encounter. The following supplemental qualifiers may be appropriate for representing such data:", "parent_section": "§6.2.5 Healthcare Encounters (HO)", "heading_level": null, "sibling_index": null, "page": 169, "extracted_by": {"agent": "oh-my-claudecode:writer", "prompt_version": "P0_writer_pdf_v1.2_inline_R10-15_O26_NEW1-7"}}
{"atom_id": "ig34_p0169_a0008", "atom_type": "LIST_ITEM", "verbatim": "a. The supplemental qualifier with QNAM = \"HOINDC\" would be used to represent the indication/medical condition for the encounter (e.g., stroke). Note that --INDC is an Interventions class variable, so is not a standard variable for HO, which is an Events class domain.", "parent_section": "§6.2.5 Healthcare Encounters (HO)", "heading_level": null, "sibling_index": null, "page": 169, "extracted_by": {"agent": "oh-my-claudecode:writer", "prompt_version": "P0_writer_pdf_v1.2_inline_R10-15_O26_NEW1-7"}}
{"atom_id": "ig34_p0169_a0009", "atom_type": "LIST_ITEM", "verbatim": "b. The supplemental qualifier with QNAM = \"HOREAS\" would be used to represent a reason for the encounter other than a medical condition (e.g., annual checkup).", "parent_section": "§6.2.5 Healthcare Encounters (HO)", "heading_level": null, "sibling_index": null, "page": 169, "extracted_by": {"agent": "oh-my-claudecode:writer", "prompt_version": "P0_writer_pdf_v1.2_inline_R10-15_O26_NEW1-7"}}
{"atom_id": "ig34_p0169_a0010", "atom_type": "LIST_ITEM", "verbatim": "4. If collected data includes the name of the provider or the facility where the encounter took place, this may be represented using the supplemental qualifier with QNAM = \"HONAM\". Note that --NAM is a Findings class variable, so is not a standard variable for HO, which is an Events class domain.", "parent_section": "§6.2.5 Healthcare Encounters (HO)", "heading_level": null, "sibling_index": null, "page": 169, "extracted_by": {"agent": "oh-my-claudecode:writer", "prompt_version": "P0_writer_pdf_v1.2_inline_R10-15_O26_NEW1-7"}}
{"atom_id": "ig34_p0169_a0011", "atom_type": "LIST_ITEM", "verbatim": "5. Any identifier variables, timing variables, or Events general observation-class qualifiers may be added to the HO domain, but the following Qualifiers would generally not be used: --SER, --ACN, --ACNOTH, --REL, --RELNST, --SCAN, --SCONG, --SDISAB, --SDTH, --SHOSP, --SLIFE, --SOD, --SMIE, --BODYS, --LOC, --SEV, --TOX, --TOXGR, --PATT, --CONTRT.", "parent_section": "§6.2.5 Healthcare Encounters (HO)", "heading_level": null, "sibling_index": null, "page": 169, "extracted_by": {"agent": "oh-my-claudecode:writer", "prompt_version": "P0_writer_pdf_v1.2_inline_R10-15_O26_NEW1-7"}}
{"atom_id": "ig34_p0169_a0012", "atom_type": "HEADING", "verbatim": "HO – Examples", "parent_section": "§6.2.5 Healthcare Encounters (HO)", "heading_level": 4, "sibling_index": 4, "page": 169, "extracted_by": {"agent": "oh-my-claudecode:writer", "prompt_version": "P0_writer_pdf_v1.2_inline_R10-15_O26_NEW1-7"}}
{"atom_id": "ig34_p0169_a0013", "atom_type": "HEADING", "verbatim": "Example 1", "parent_section": "§6.2.5 Healthcare Encounters (HO)", "heading_level": 5, "sibling_index": 1, "page": 169, "extracted_by": {"agent": "oh-my-claudecode:writer", "prompt_version": "P0_writer_pdf_v1.2_inline_R10-15_O26_NEW1-7"}}
{"atom_id": "ig34_p0169_a0014", "atom_type": "SENTENCE", "verbatim": "In this example, a healthcare encounter CRF collects verbatim descriptions of the encounter.", "parent_section": "§6.2.5 Healthcare Encounters (HO)", "heading_level": null, "sibling_index": null, "page": 169, "extracted_by": {"agent": "oh-my-claudecode:writer", "prompt_version": "P0_writer_pdf_v1.2_inline_R10-15_O26_NEW1-7"}}
{"atom_id": "ig34_p0169_a0015", "atom_type": "LIST_ITEM", "verbatim": "Rows 1-2: Subject ABC123101 was hospitalized and then moved to a nursing home.", "parent_section": "§6.2.5 Healthcare Encounters (HO)", "heading_level": null, "sibling_index": null, "page": 169, "extracted_by": {"agent": "oh-my-claudecode:writer", "prompt_version": "P0_writer_pdf_v1.2_inline_R10-15_O26_NEW1-7"}}
{"atom_id": "ig34_p0169_a0016", "atom_type": "LIST_ITEM", "verbatim": "Rows 3-5: Subject ABC123102 was in a hospital in the general ward and then in the intensive care unit. This same subject was transferred to a rehabilitation facility.", "parent_section": "§6.2.5 Healthcare Encounters (HO)", "heading_level": null, "sibling_index": null, "page": 169, "extracted_by": {"agent": "oh-my-claudecode:writer", "prompt_version": "P0_writer_pdf_v1.2_inline_R10-15_O26_NEW1-7"}}
{"atom_id": "ig34_p0169_a0017", "atom_type": "LIST_ITEM", "verbatim": "Rows 6-7: Subject ABC123103 has 2 hospitalization records.", "parent_section": "§6.2.5 Healthcare Encounters (HO)", "heading_level": null, "sibling_index": null, "page": 169, "extracted_by": {"agent": "oh-my-claudecode:writer", "prompt_version": "P0_writer_pdf_v1.2_inline_R10-15_O26_NEW1-7"}}
{"atom_id": "ig34_p0169_a0018", "atom_type": "LIST_ITEM", "verbatim": "Row 8: Subject ABC123104 was seen in the cardiac catheterization laboratory.", "parent_section": "§6.2.5 Healthcare Encounters (HO)", "heading_level": null, "sibling_index": null, "page": 169, "extracted_by": {"agent": "oh-my-claudecode:writer", "prompt_version": "P0_writer_pdf_v1.2_inline_R10-15_O26_NEW1-7"}}
{"atom_id": "ig34_p0169_a0019", "atom_type": "TABLE_HEADER", "verbatim": "| Row | STUDYID | DOMAIN | USUBJID | HOSEQ | HOTERM | | EPOCH | HOSTDTC | HOENDTC | HODUR |", "parent_section": "§6.2.5 Healthcare Encounters (HO)", "heading_level": null, "sibling_index": null, "page": 169, "extracted_by": {"agent": "oh-my-claudecode:writer", "prompt_version": "P0_writer_pdf_v1.2_inline_R10-15_O26_NEW1-7"}}
{"atom_id": "ig34_p0169_a0020", "atom_type": "TABLE_ROW", "verbatim": "| 1 | ABC | HO | ABC123101 | 1 | HOSPITAL | | TREATMENT | 2011-06-08 | | |", "parent_section": "§6.2.5 Healthcare Encounters (HO)", "heading_level": null, "sibling_index": null, "page": 169, "extracted_by": {"agent": "oh-my-claudecode:writer", "prompt_version": "P0_writer_pdf_v1.2_inline_R10-15_O26_NEW1-7"}}
{"atom_id": "ig34_p0169_a0021", "atom_type": "TABLE_ROW", "verbatim": "| 2 | ABC | HO | ABC123101 | 2 | NURSING HOME | | TREATMENT | 2011-08-06 | 2011-08-08 | P6D |", "parent_section": "§6.2.5 Healthcare Encounters (HO)", "heading_level": null, "sibling_index": null, "page": 169, "extracted_by": {"agent": "oh-my-claudecode:writer", "prompt_version": "P0_writer_pdf_v1.2_inline_R10-15_O26_NEW1-7"}}
{"atom_id": "ig34_p0169_a0022", "atom_type": "TABLE_ROW", "verbatim": "| 3 | ABC | HO | ABC123103 | 1 | GENERAL WARD | | TREATMENT | 2011-08-02 | | |", "parent_section": "§6.2.5 Healthcare Encounters (HO)", "heading_level": null, "sibling_index": null, "page": 169, "extracted_by": {"agent": "oh-my-claudecode:writer", "prompt_version": "P0_writer_pdf_v1.2_inline_R10-15_O26_NEW1-7"}}
{"atom_id": "ig34_p0169_a0023", "atom_type": "TABLE_ROW", "verbatim": "| 4 | ABC | HO | ABC123103 | 2 | GENERAL WARD | | TREATMENT | 2011-08-15 | 2011-08-20 | P6D |", "parent_section": "§6.2.5 Healthcare Encounters (HO)", "heading_level": null, "sibling_index": null, "page": 169, "extracted_by": {"agent": "oh-my-claudecode:writer", "prompt_version": "P0_writer_pdf_v1.2_inline_R10-15_O26_NEW1-7"}}
{"atom_id": "ig34_p0169_a0024", "atom_type": "TABLE_ROW", "verbatim": "| 5 | ABC | HO | ABC123105 | 1 | GENERAL WARD | | TREATMENT | 2011-09-09 | 2011-09-11 | |", "parent_section": "§6.2.5 Healthcare Encounters (HO)", "heading_level": null, "sibling_index": null, "page": 169, "extracted_by": {"agent": "oh-my-claudecode:writer", "prompt_version": "P0_writer_pdf_v1.2_inline_R10-15_O26_NEW1-7"}}
{"atom_id": "ig34_p0169_a0025", "atom_type": "TABLE_ROW", "verbatim": "| 6 | ABC | HO | ABC123105 | 1 | REHABILITATION FACILITY | | TREATMENT | 2011-08-15 | 2011-08-20 | |", "parent_section": "§6.2.5 Healthcare Encounters (HO)", "heading_level": null, "sibling_index": null, "page": 169, "extracted_by": {"agent": "oh-my-claudecode:writer", "prompt_version": "P0_writer_pdf_v1.2_inline_R10-15_O26_NEW1-7"}}
{"atom_id": "ig34_p0169_a0026", "atom_type": "TABLE_ROW", "verbatim": "| 7 | ABC | HO | ABC123103 | 2 | HOSPITAL | | TREATMENT | 2011-09-11 | 2011-09-15 | |", "parent_section": "§6.2.5 Healthcare Encounters (HO)", "heading_level": null, "sibling_index": null, "page": 169, "extracted_by": {"agent": "oh-my-claudecode:writer", "prompt_version": "P0_writer_pdf_v1.2_inline_R10-15_O26_NEW1-7"}}
{"atom_id": "ig34_p0169_a0027", "atom_type": "TABLE_ROW", "verbatim": "| 8 | ABC | HO | ABC123104 | 1 | CARDIAC CATHETERIZATION LABORATORY | | TREATMENT | 2011-10-10 | 2011-10-10 | |", "parent_section": "§6.2.5 Healthcare Encounters (HO)", "heading_level": null, "sibling_index": null, "page": 169, "extracted_by": {"agent": "oh-my-claudecode:writer", "prompt_version": "P0_writer_pdf_v1.2_inline_R10-15_O26_NEW1-7"}}
{"atom_id": "ig34_p0169_a0028", "atom_type": "TABLE_ROW", "verbatim": "| 9 | ABC | HO | ABC123105 | 1 | CARDIAC CATHETERIZATION LABORATORY | | TREATMENT | 2011-10-11 | 2011-10-11 | |", "parent_section": "§6.2.5 Healthcare Encounters (HO)", "heading_level": null, "sibling_index": null, "page": 169, "extracted_by": {"agent": "oh-my-claudecode:writer", "prompt_version": "P0_writer_pdf_v1.2_inline_R10-15_O26_NEW1-7"}}
{"atom_id": "ig34_p0169_a0029", "atom_type": "TABLE_ROW", "verbatim": "| 10 | ABC | HO | ABC123105 | 2 | HOSPITAL | | TREATMENT | 2011-10-11 | 2011-10-16 | |", "parent_section": "§6.2.5 Healthcare Encounters (HO)", "heading_level": null, "sibling_index": null, "page": 169, "extracted_by": {"agent": "oh-my-claudecode:writer", "prompt_version": "P0_writer_pdf_v1.2_inline_R10-15_O26_NEW1-7"}}
{"atom_id": "ig34_p0169_a0030", "atom_type": "TABLE_ROW", "verbatim": "| 11 | ABC | HO | ABC123106 | 2 | HOSPITAL | | FOLLOW-UP | 2011-11-07 | 2011-11-09 | |", "parent_section": "§6.2.5 Healthcare Encounters (HO)", "heading_level": null, "sibling_index": null, "page": 169, "extracted_by": {"agent": "oh-my-claudecode:writer", "prompt_version": "P0_writer_pdf_v1.2_inline_R10-15_O26_NEW1-7"}}
{"atom_id": "ig34_p0169_a0031", "atom_type": "LIST_ITEM", "verbatim": "Row 1: For the first encounter recorded for subject ABC123101, the indication/medical condition for hospitalization was recorded.", "parent_section": "§6.2.5 Healthcare Encounters (HO)", "heading_level": null, "sibling_index": null, "page": 169, "extracted_by": {"agent": "oh-my-claudecode:writer", "prompt_version": "P0_writer_pdf_v1.2_inline_R10-15_O26_NEW1-7"}}
{"atom_id": "ig34_p0169_a0032", "atom_type": "LIST_ITEM", "verbatim": "Row 2: For the second encounter recorded for subject ABC123101, the reason for admission to a nursing home was for rehabilitation.", "parent_section": "§6.2.5 Healthcare Encounters (HO)", "heading_level": null, "sibling_index": null, "page": 169, "extracted_by": {"agent": "oh-my-claudecode:writer", "prompt_version": "P0_writer_pdf_v1.2_inline_R10-15_O26_NEW1-7"}}
{"atom_id": "ig34_p0169_a0033", "atom_type": "LIST_ITEM", "verbatim": "Rows 3-4: For the 2 encounters recorded for subject ABC123103, the names of the facilities were recorded.", "parent_section": "§6.2.5 Healthcare Encounters (HO)", "heading_level": null, "sibling_index": null, "page": 169, "extracted_by": {"agent": "oh-my-claudecode:writer", "prompt_version": "P0_writer_pdf_v1.2_inline_R10-15_O26_NEW1-7"}}
{"atom_id": "ig34_p0169_a0034", "atom_type": "LIST_ITEM", "verbatim": "Row 5: For the first encounter for subject ABC123105, the indication/medical condition for the hospitalization was recorded.", "parent_section": "§6.2.5 Healthcare Encounters (HO)", "heading_level": null, "sibling_index": null, "page": 169, "extracted_by": {"agent": "oh-my-claudecode:writer", "prompt_version": "P0_writer_pdf_v1.2_inline_R10-15_O26_NEW1-7"}}
{"atom_id": "ig34_p0169_a0035", "atom_type": "LIST_ITEM", "verbatim": "Row 6: For the second encounter for subject ABC123105, the name of the hospital was recorded.", "parent_section": "§6.2.5 Healthcare Encounters (HO)", "heading_level": null, "sibling_index": null, "page": 169, "extracted_by": {"agent": "oh-my-claudecode:writer", "prompt_version": "P0_writer_pdf_v1.2_inline_R10-15_O26_NEW1-7"}}
{"atom_id": "ig34_p0169_a0036", "atom_type": "HEADING", "verbatim": "Example 2", "parent_section": "§6.2.5 Healthcare Encounters (HO)", "heading_level": 5, "sibling_index": 2, "page": 169, "extracted_by": {"agent": "oh-my-claudecode:writer", "prompt_version": "P0_writer_pdf_v1.2_inline_R10-15_O26_NEW1-7"}}
{"atom_id": "ig34_p0170_a0001", "atom_type": "SENTENCE", "verbatim": "In this example, the dates of an initial hospitalization are collected as well as the date/time of ICU stay.", "parent_section": "§6.2.5 Healthcare Encounters (HO)", "heading_level": null, "sibling_index": null, "page": 170, "extracted_by": {"agent": "oh-my-claudecode:writer", "prompt_version": "P0_writer_pdf_v1.2_inline_R10-15_O26_NEW1-7"}}
{"atom_id": "ig34_p0170_a0002", "atom_type": "SENTENCE", "verbatim": "Subsequent to discharge from the initial hospitalization, follow-up healthcare encounters, including admission to a rehabilitation facility, visits with healthcare providers, and home nursing visits were collected.", "parent_section": "§6.2.5 Healthcare Encounters (HO)", "heading_level": null, "sibling_index": null, "page": 170, "extracted_by": {"agent": "oh-my-claudecode:writer", "prompt_version": "P0_writer_pdf_v1.2_inline_R10-15_O26_NEW1-7"}}
{"atom_id": "ig34_p0170_a0003", "atom_type": "SENTENCE", "verbatim": "Repeat hospitalizations are categorized separately.", "parent_section": "§6.2.5 Healthcare Encounters (HO)", "heading_level": null, "sibling_index": null, "page": 170, "extracted_by": {"agent": "oh-my-claudecode:writer", "prompt_version": "P0_writer_pdf_v1.2_inline_R10-15_O26_NEW1-7"}}
{"atom_id": "ig34_p0170_a0004", "atom_type": "TABLE_HEADER", "verbatim": "| Row | STUDYID | DOMAIN | USUBJID | HOSEQ | HOTERM | | HOCAT | HOSTDTC | HOENDTC | HOSTRTPT | HOENTPT |", "parent_section": "§6.2.5 Healthcare Encounters (HO)", "heading_level": null, "sibling_index": null, "page": 170, "extracted_by": {"agent": "oh-my-claudecode:writer", "prompt_version": "P0_writer_pdf_v1.2_inline_R10-15_O26_NEW1-7"}}
{"atom_id": "ig34_p0170_a0005", "atom_type": "TABLE_ROW", "verbatim": "| 1 | ABC | HO | ABC123101 | 1 | HOSPITAL | | INITIAL HOSPITALIZATION | 2011-06-08 | | | |", "parent_section": "§6.2.5 Healthcare Encounters (HO)", "heading_level": null, "sibling_index": null, "page": 170, "extracted_by": {"agent": "oh-my-claudecode:writer", "prompt_version": "P0_writer_pdf_v1.2_inline_R10-15_O26_NEW1-7"}}
{"atom_id": "ig34_p0170_a0006", "atom_type": "TABLE_ROW", "verbatim": "| 2 | ABC | HO | ABC123101 | 2 | INTENSIVE CARE UNIT | | INITIAL HOSPITALIZATION | 2011-06-10 T 10:00 | 2011-06-10 | | |", "parent_section": "§6.2.5 Healthcare Encounters (HO)", "heading_level": null, "sibling_index": null, "page": 170, "extracted_by": {"agent": "oh-my-claudecode:writer", "prompt_version": "P0_writer_pdf_v1.2_inline_R10-15_O26_NEW1-7"}}
{"atom_id": "ig34_p0170_a0007", "atom_type": "TABLE_ROW", "verbatim": "| 3 | ABC | HO | ABC123101 | 3 | REHABILITATION FACILITY | | FOLLOW-UP CARE | 2011-06-12 | 2011-06-22 | | |", "parent_section": "§6.2.5 Healthcare Encounters (HO)", "heading_level": null, "sibling_index": null, "page": 170, "extracted_by": {"agent": "oh-my-claudecode:writer", "prompt_version": "P0_writer_pdf_v1.2_inline_R10-15_O26_NEW1-7"}}
{"atom_id": "ig34_p0170_a0008", "atom_type": "TABLE_ROW", "verbatim": "| 4 | ABC | HO | ABC123101 | 4 | CARDIOLOGY UNIT | | FOLLOW-UP CARE | 2011-06-25 | 2011-06-25 | | |", "parent_section": "§6.2.5 Healthcare Encounters (HO)", "heading_level": null, "sibling_index": null, "page": 170, "extracted_by": {"agent": "oh-my-claudecode:writer", "prompt_version": "P0_writer_pdf_v1.2_inline_R10-15_O26_NEW1-7"}}
{"atom_id": "ig34_p0170_a0009", "atom_type": "TABLE_ROW", "verbatim": "| 5 | ABC | HO | ABC123101 | 5 | OUTPATIENT PHYSICAL THERAPY | | FOLLOW-UP CARE | 2011-06-27 | 2011-06-27 | | |", "parent_section": "§6.2.5 Healthcare Encounters (HO)", "heading_level": null, "sibling_index": null, "page": 170, "extracted_by": {"agent": "oh-my-claudecode:writer", "prompt_version": "P0_writer_pdf_v1.2_inline_R10-15_O26_NEW1-7"}}
{"atom_id": "ig34_p0170_a0010", "atom_type": "TABLE_ROW", "verbatim": "| 6 | ABC | HO | ABC123101 | 6 | OUTPATIENT PHYSICAL THERAPY | | FOLLOW-UP CARE | 2011-07-12 | 2011-07-12 | | |", "parent_section": "§6.2.5 Healthcare Encounters (HO)", "heading_level": null, "sibling_index": null, "page": 170, "extracted_by": {"agent": "oh-my-claudecode:writer", "prompt_version": "P0_writer_pdf_v1.2_inline_R10-15_O26_NEW1-7"}}
{"atom_id": "ig34_p0170_a0011", "atom_type": "TABLE_ROW", "verbatim": "| 7 | ABC | HO | ABC123101 | 7 | HOSPITAL | | REPEAT HOSPITALIZATION | 2011-07-23 | 2011-07-24 | | |", "parent_section": "§6.2.5 Healthcare Encounters (HO)", "heading_level": null, "sibling_index": null, "page": 170, "extracted_by": {"agent": "oh-my-claudecode:writer", "prompt_version": "P0_writer_pdf_v1.2_inline_R10-15_O26_NEW1-7"}}
{"atom_id": "ig34_p0170_a0012", "atom_type": "TABLE_ROW", "verbatim": "| 8 | ABC | HO | ABC123102 | 1 | HOSPITAL | | INITIAL HOSPITALIZATION | 2011-06-19 | | | |", "parent_section": "§6.2.5 Healthcare Encounters (HO)", "heading_level": null, "sibling_index": null, "page": 170, "extracted_by": {"agent": "oh-my-claudecode:writer", "prompt_version": "P0_writer_pdf_v1.2_inline_R10-15_O26_NEW1-7"}}
