{"atom_id":"ig34_p0321_a007","verdict":"PASS","reason":"verbatim matches PDF p.321 list item 1 under QRS Shared Assumptions; atom_type LIST_ITEM correct; parent_section L5+L6 chain accurate (FT-Assumptions group container with QRS Shared Assumptions sub-heading); ADAS-COG/BPI SHORT FORM/APACHE II/4 STAIR ASCEND quoted instrument names exact; FTCAT variable identifier canonical; tab separator after '1.' preserved","evidence":"PDF p.321 mid-page: '1.\\tThe name of a QRS instrument is described under the variable --CAT in the relevant QRS domain (i.e., FT, QS, RS), and may be either abbreviations or longer names. For example, \"ADAS-COG\", \"BPI SHORT FORM\", and \"APACHE II\" are all --CATs which are shortened names for the instruments they represent, whereas \"4 STAIR ASCEND\" is the FTCAT for the instrument of the same name. Sponsors should always reference CDISC Controlled Terminology.'"}
{"atom_id":"ig34_p0322_a001","verdict":"PASS","reason":"verbatim matches PDF p.322 top item 'i.' (4.a.i sub-list under QRS Shared Assumptions item 4 carry-over from p.321); LIST_ITEM atom_type correct; parent_section retains QRS Shared Assumptions L6 context across page break; tab separator after 'i.' preserved","evidence":"PDF p.322 top: 'i.\\tQRS subtotal, total, etc. scores listed on the CRF are considered captured data and are included in the instrument's controlled terminology.' (sub-item under 4.a 'The following rules apply for total-type scores in QRS datasets')"}
{"atom_id":"ig34_p0323_a012","verdict":"PASS","reason":"CODE_LITERAL atom_type correct per NEW4 STRICT (.xpt dataset filename); verbatim 'ft.xpt' exact; parent_section L7 named-instrument chain (FT-Examples Example 1 6-Minute Walk Test SIX MINUTE WALK) accurate","evidence":"PDF p.323 mid-page: 'ft.xpt' appears as table caption above the FT example data table with columns Row/STUDYID/DOMAIN/USUBJID/FTSEQ/FTGRPID/FTTESTCD/FTTEST/FTCAT/FTORRES/FTORRESU/FTSTRESC/FTSTRESN/FTSTRESU/FTBLFL/VISITNUM/FTDTC; 6 data rows SIXMW101..SIXMW106"}
{"atom_id":"ig34_p0324_a005","verdict":"PASS","reason":"HEADING verbatim '6.3.9.2 Questionnaires (QS)' matches PDF; hl=4 sib=2 correct (QS is 2nd L4 sub-domain after §6.3.9.1 FT under §6.3.9 QRS group); parent_section L3 group-container §6.3.9 canonical NEVER self-parent per NEW6.b 9× streak validated","evidence":"PDF p.324 upper-mid: '6.3.9.2 Questionnaires (QS)' bold heading; followed by 'QS – Description/Overview' L5 sub-heading then 'QS – Specification' L5 sib=2"}
{"atom_id":"ig34_p0325_a001","verdict":"PASS","reason":"TABLE_ROW outer-pipe format correct (8 pipes for 7 cells); QSORRESU canonical variable name (NOT QSORRES which is different variable on p.324); Variable Qualifier Role exact; (UNIT) codelist exact; 'Original Units' label exact; CDISC Notes verbatim exact; Perm Core exact — drift cal NEW1 7th time FAIL was rerun-side hallucination, baseline executor preserved correctly here","evidence":"PDF p.325 top row of continuation table: 'QSORRESU | Original Units | Char | (UNIT) | Variable Qualifier | Original units in which the data were collected. The unit for QSORRES, such as minutes or seconds or the units associated with a visual analog scale. | Perm'"}
{"atom_id":"ig34_p0326_a008","verdict":"PASS","reason":"HEADING 'QRS Shared Assumptions' verbatim matches PDF p.326 mid-page; hl=6 sib=1 RESTART under QS-Assumptions L5 correct per NEW7 L6 RESTART per L4 sub-domain; parent_section §6.3.9.2 QS — QS-Assumptions L5 chain accurate","evidence":"PDF p.326 mid-page: 'QRS Shared Assumptions' bold heading appears below 'QS – Assumptions' (L5 sib=3) which states 'There are no additional QS-specific assumptions; all are included in the QRS Shared Assumptions.' confirming L6 sub-heading position"}
{"atom_id":"ig34_p0327_a001","verdict":"PASS","reason":"LIST_ITEM verbatim matches PDF p.327 top numbered item 4; --DRVFL canonical variable identifier; parent_section L6 QRS Shared Assumptions chain accurate (continuation from p.326)","evidence":"PDF p.327 top: '4. Sponsors should always consult published QRS supplements for guidance on submitting derived information in a SDTMIG QRS domain. Derived variable results in QRS are usually considered captured data. If sponsors operationally derive variable results, then the derived records that are submitted in a QRS domain should be flagged by --DRVFL.'"}
{"atom_id":"ig34_p0328_a011","verdict":"PASS","reason":"HEADING 'Satisfaction With Life Scale (SWLS)' verbatim matches PDF p.328 mid-page; hl=7 sib=1 RESTART per Example 1 correct per NEW7 L7 named-instrument convention; parent_section §6.3.9.2 QS — QS-Examples — Example 1 L6 chain accurate","evidence":"PDF p.328 mid-page: 'Satisfaction With Life Scale (SWLS)' bold heading appears below 'Example 1' (L6 sib=1) and above 'The example represents the items from the SWLS instrument.' descriptor sentence then 'qs.xpt' table caption"}
{"atom_id":"ig34_p0329_a004","verdict":"PASS","reason":"HEADING verbatim '6.3.9.3  Disease Response and Clin Classification (RS)' matches PDF including double-space after section number; hl=4 sib=3 correct (RS is 3rd L4 sub-domain after FT/QS); parent_section L3 group-container §6.3.9 canonical NEW6.b 9× streak validated","evidence":"PDF p.329 upper portion: '6.3.9.3  Disease Response and Clin Classification (RS)' bold heading (note the double-space after '6.3.9.3' before 'Disease' is preserved verbatim per R10 strict); followed by 'RS – Description/Overview' L5 sub-heading"}
{"atom_id":"ig34_p0330_a011","verdict":"PASS","reason":"TABLE_ROW outer-pipe format correct (8 pipes for 7 cells); RSSTAT canonical variable name; Record Qualifier Role exact; (ND) codelist exact; 'Completion Status' label exact; CDISC Notes verbatim exact; Perm Core exact","evidence":"PDF p.330 mid-table row: 'RSSTAT | Completion Status | Char | (ND) | Record Qualifier | Used to indicate the response assessment was not performed. Should be null if a result exists in RSORRES. | Perm'"}
