{"atom_id":"ig34_p0361_a010","reviewer_verdict":"PASS","dimensions":{"verbatim":"PASS","atom_type":"PASS","parent_section":"PASS","heading_chain":"PASS","new8_oracle":"N/A","table_pipes":"N/A"},"notes":"L2 §6.4 hl=2 sib=4 confirmed under §6 post §6.1/§6.2/§6.3; verbatim exact PDF p.361","reviewer_subagent":"claude-code-guide","reviewer_slot":47,"audit_pivot_index":28}
{"atom_id":"ig34_p0362_a005","reviewer_verdict":"PASS","dimensions":{"verbatim":"PASS","atom_type":"PASS","parent_section":"PASS","heading_chain":"N/A","new8_oracle":"N/A","table_pipes":"N/A"},"notes":"Criterion 2 sentence verbatim exact match PDF p.362; parent §6.4.1 long-form L3 textual acceptable","reviewer_subagent":"claude-code-guide","reviewer_slot":47,"audit_pivot_index":28}
{"atom_id":"ig34_p0363_a010","reviewer_verdict":"PASS","dimensions":{"verbatim":"PASS","atom_type":"PASS","parent_section":"PASS","heading_chain":"PASS","new8_oracle":"N/A","table_pipes":"N/A"},"notes":"L3 §6.4.2 hl=3 sib=2 confirmed PDF p.363; parent §6.4 short-bracket all-caps canonical","reviewer_subagent":"claude-code-guide","reviewer_slot":47,"audit_pivot_index":28}
{"atom_id":"ig34_p0364_a010","reviewer_verdict":"PASS","dimensions":{"verbatim":"PASS","atom_type":"PASS","parent_section":"PASS","heading_chain":"PASS","new8_oracle":"N/A","table_pipes":"N/A"},"notes":"L3 §6.4.3 hl=3 sib=3 confirmed PDF p.364; parent canonical short-bracket","reviewer_subagent":"claude-code-guide","reviewer_slot":47,"audit_pivot_index":28}
{"atom_id":"ig34_p0365_a017","reviewer_verdict":"PASS","dimensions":{"verbatim":"PASS","atom_type":"PASS","parent_section":"PASS","heading_chain":"N/A","new8_oracle":"PASS","table_pipes":"PASS"},"notes":"FAORRESU spec row 7 fields/8 pipes; FAORRESU+FAORRES canonical FA Variable Qualifiers; verbatim matches PDF p.365","reviewer_subagent":"claude-code-guide","reviewer_slot":47,"audit_pivot_index":28}
{"atom_id":"ig34_p0366_a009","reviewer_verdict":"PASS","dimensions":{"verbatim":"PASS","atom_type":"PASS","parent_section":"PASS","heading_chain":"N/A","new8_oracle":"PASS","table_pipes":"PASS"},"notes":"TAETORD Timing row 7 fields/8 pipes incl empty CT col 4; TAETORD canonical Trial Arms Timing variable; verbatim matches PDF p.366","reviewer_subagent":"claude-code-guide","reviewer_slot":47,"audit_pivot_index":28}
{"atom_id":"ig34_p0367_a004","reviewer_verdict":"PASS","dimensions":{"verbatim":"PASS","atom_type":"PASS","parent_section":"PASS","heading_chain":"PASS","new8_oracle":"N/A","table_pipes":"N/A"},"notes":"L4 FA – Examples hl=4 sib=4 per N9 leaf-pattern Desc=1/Spec=2/Assump=3/Examples=4; parent §6.4.4 canonical full-form","reviewer_subagent":"claude-code-guide","reviewer_slot":47,"audit_pivot_index":28}
{"atom_id":"ig34_p0368_a010","reviewer_verdict":"PASS","dimensions":{"verbatim":"PASS","atom_type":"PASS","parent_section":"PASS","heading_chain":"N/A","new8_oracle":"PASS","table_pipes":"N/A"},"notes":"Rows 1,6,11 LIST_ITEM verbatim match PDF p.368; FATESTCD/SEV/CESEV oracle valid; parent FA – Examples acceptable L5 short form","reviewer_subagent":"claude-code-guide","reviewer_slot":47,"audit_pivot_index":28}
{"atom_id":"ig34_p0369_a008","reviewer_verdict":"PASS","dimensions":{"verbatim":"PASS","atom_type":"PASS","parent_section":"PASS","heading_chain":"N/A","new8_oracle":"N/A","table_pipes":"N/A"},"notes":"relrec.xpt CODE_LITERAL filename token standalone above relrec.xpt table PDF p.369; canonical use of CODE_LITERAL for .xpt token","reviewer_subagent":"claude-code-guide","reviewer_slot":47,"audit_pivot_index":28}
{"atom_id":"ig34_p0370_a025","reviewer_verdict":"PASS","dimensions":{"verbatim":"PASS","atom_type":"PASS","parent_section":"PASS","heading_chain":"N/A","new8_oracle":"PASS","table_pipes":"PASS"},"notes":"relrec.xpt row 2 XYZ FA FASPID MANY 23 — 8 fields/9 pipes incl 2 empty USUBJID+IDVARVAL cells; FASPID valid FA Identifier; verbatim matches PDF p.370","reviewer_subagent":"claude-code-guide","reviewer_slot":47,"audit_pivot_index":28}
