{"atom_id": "ig34_p0281_a036", "page": 281, "atom_type": "TABLE_ROW", "verdict": "FAIL", "dim_verbatim": "FAIL", "dim_atom_type": "PASS", "dim_parent_section": "PASS", "dim_atom_id": "PASS", "dim_heading_level_sib": "N/A", "dim_table_row_outerpipe": "PASS", "notes": "VALUE-HALLUCINATION on IDVAR field. PDF p.281 Method C (One to Many Using PCGRPID and PPSEQ) relrec.xpt Row 2 shows IDVAR=PCGRPID with IDVARVAL=DY1_DRGX_B. Atom verbatim has IDVAR=PCSEQ with IDVARVAL=DY1_DRGX_B — semantically impossible (PCSEQ takes only integer values like 1..12, never DY1_DRGX_*). Likely writer copy-paste error from neighbouring Method B/D rows where IDVAR=PCSEQ. Recommendation: rerun atom or correct IDVAR to PCGRPID. Sibling_index=2 matches PDF Row 2. parent_section dual-form ' — Example 3' acceptable per NEW6.b. atom_type/atom_id/outer-pipe structure all valid."}
{"atom_id": "ig34_p0282_a037", "page": 282, "atom_type": "TABLE_ROW", "verdict": "PASS", "dim_verbatim": "PASS", "dim_atom_type": "PASS", "dim_parent_section": "PASS", "dim_atom_id": "PASS", "dim_heading_level_sib": "N/A", "dim_table_row_outerpipe": "PASS", "notes": "PDF p.282 Example 4 Method A relrec.xpt Row 2 = '2 ABC-123 PC ABC-123-0001 PCGRPID DY1DRGX_A 1'. Atom verbatim matches char-by-char (note p.282 uses no-underscore form DY1DRGX_A vs p.281 DY1_DRGX_A — source-internal inconsistency faithfully preserved). 8-pipe outer-pipe with empty RELTYPE field correct."}
{"atom_id": "ig34_p0283_a031", "page": 283, "atom_type": "TABLE_ROW", "verdict": "PASS", "dim_verbatim": "PASS", "dim_atom_type": "PASS", "dim_parent_section": "PASS", "dim_atom_id": "PASS", "dim_heading_level_sib": "N/A", "dim_table_row_outerpipe": "PASS", "notes": "PDF p.283 Method D relrec.xpt Row 19 = '19 ABC-123 PC ABC-123-0001 PCSEQ 8 2'. Match. parent_section '§6.3.5.9.3 Relating PP Records to PC Records — Example 4' dual-form acceptable per NEW6.b."}
{"atom_id": "ig34_p0284_a009", "page": 284, "atom_type": "SENTENCE", "verdict": "PARTIAL", "dim_verbatim": "PASS", "dim_atom_type": "PASS", "dim_parent_section": "PARTIAL", "dim_atom_id": "PASS", "dim_heading_level_sib": "N/A", "dim_table_row_outerpipe": "N/A", "notes": "Verbatim PASS char-by-char vs PDF p.284 paragraph 4. atom_type SENTENCE correct. parent_section under-specified — PDF p.284 places this paragraph under L6 'PC-PP Conclusions' heading (visible on p.284 mid-page), but atom assigns to L5 '§6.3.5.9.3 Relating PP Records to PC Records'. Per NEW7 chain rules, parent_section should be most-specific ancestor heading; recommend '§6.3.5.9.3 PP-PC Relating PC-PP Conclusions' or similar L6 path. Non-blocking sibling_continuity drift — likely cross-batch handoff under-claim (round 5 batch 28 retro motif). 5/6 dim PASS = PARTIAL."}
{"atom_id": "ig34_p0285_a013", "page": 285, "atom_type": "LIST_ITEM", "verdict": "PASS", "dim_verbatim": "PASS", "dim_atom_type": "PASS", "dim_parent_section": "PASS", "dim_atom_id": "PASS", "dim_heading_level_sib": "N/A", "dim_table_row_outerpipe": "N/A", "notes": "PDF p.285 §6.3.7.1 Generic Morphology/Physiology Specification first bullet matches char-by-char. atom_type LIST_ITEM correct (• bullet). parent_section L4 canonical full-form correct."}
{"atom_id": "ig34_p0286_a005", "page": 286, "atom_type": "TABLE_ROW", "verdict": "PARTIAL", "dim_verbatim": "FAIL", "dim_atom_type": "PASS", "dim_parent_section": "PASS", "dim_atom_id": "PASS", "dim_heading_level_sib": "N/A", "dim_table_row_outerpipe": "PASS", "notes": "PDF p.286 generic --SEQ CDISC Notes: '...in the case of the Trial Summary DOMAIN). May be any valid number...'. Atom verbatim says 'Trial Summary DATASET' — single-word substitution dataset/domain. WRITER-FAMILY paraphrase motif (NEW8 SENTENCE-trigram drift, batch 24 precedent). Strict char-by-char FAIL; semantic equivalent but R10 strict violation. atom_type/parent_section/atom_id/outer-pipe structure all PASS = 5/6 → PARTIAL. Consistent with the round 5 NEW1 5th-time CATASTROPHIC FAIL motif (writer-family value substitution). Cross-check atom 10 (p.290 MKSEQ) which DOES say 'Trial Summary domain' — atom 6 is the divergent one."}
{"atom_id": "ig34_p0287_a018", "page": 287, "atom_type": "TABLE_ROW", "verdict": "PASS", "dim_verbatim": "PASS", "dim_atom_type": "PASS", "dim_parent_section": "PASS", "dim_atom_id": "PASS", "dim_heading_level_sib": "N/A", "dim_table_row_outerpipe": "PASS", "notes": "PDF p.287 CVSTRESU row: 'CVSTRESU | Standard Units | Char | (UNIT) | Variable Qualifier | Standardized units used for CVSTRESC and CVSTRESN. | Perm'. Match. 7-field outer-pipe valid. parent_section L4 canonical correct."}
{"atom_id": "ig34_p0288_a020", "page": 288, "atom_type": "LIST_ITEM", "verdict": "PASS", "dim_verbatim": "PASS", "dim_atom_type": "PASS", "dim_parent_section": "PASS", "dim_atom_id": "PASS", "dim_heading_level_sib": "N/A", "dim_table_row_outerpipe": "N/A", "notes": "PDF p.288 CV – Assumptions item 1 matches char-by-char. atom_type LIST_ITEM correct (numbered list). parent_section L4 canonical (could be more specific 'CV – Assumptions' L6 but L4 anchor accepted per dual-form). Number prefix '1.' preserved as part of list-item content."}
{"atom_id": "ig34_p0289_a017", "page": 289, "atom_type": "TABLE_HEADER", "verdict": "PASS", "dim_verbatim": "PASS", "dim_atom_type": "PASS", "dim_parent_section": "PASS", "dim_atom_id": "PASS", "dim_heading_level_sib": "N/A", "dim_table_row_outerpipe": "PASS", "notes": "PDF p.289 Example 2 cv.xpt 18-column header match: Row+STUDYID+DOMAIN+USUBJID+CVSEQ+CVTESTCD+CVTEST+CVCAT+CVORRES+CVORRESU+CVSTRESC+CVSTRESN+CVSTRESU+CVLOC+CVMETHOD+VISITNUM+VISIT+CVDTC. atom_type TABLE_HEADER correct. NEW8.c TABLE_HEADER column-set codification satisfied (18/18 columns)."}
{"atom_id": "ig34_p0290_a011", "page": 290, "atom_type": "TABLE_ROW", "verdict": "PASS", "dim_verbatim": "PASS", "dim_atom_type": "PASS", "dim_parent_section": "PASS", "dim_atom_id": "PASS", "dim_heading_level_sib": "N/A", "dim_table_row_outerpipe": "PASS", "notes": "PDF p.290 MK domain MKSEQ row CDISC Notes: '...in the case of the Trial Summary domain). May be any valid number (including decimals) and does not have to start at 1.'. Atom matches char-by-char including correct 'domain' wording. Contrast with atom 6 (p.286 --SEQ) which incorrectly says 'dataset' — atom 10 is the canonical-correct version. parent_section L4 §6.3.7.3 MK correct."}
