[
  {
    "id": "q02",
    "category": "single_domain",
    "question": "What are the required (Core=Req) variables in the DM domain?",
    "expected_facts": [
      "STUDYID",
      "DOMAIN",
      "USUBJID",
      "SUBJID",
      "SITEID",
      "SEX",
      "COUNTRY"
    ],
    "expected_sources": [
      "domains/DM/spec.md"
    ],
    "sources": [
      "domains/DM/spec.md",
      "domains/DM/spec.md",
      "domains/DM/spec.md",
      "domains/DM/spec.md",
      "chapters/ch04_general_assumptions.md",
      "chapters/ch04_general_assumptions.md",
      "domains/DM/assumptions.md",
      "model/01_concepts_and_terms.md",
      "domains/SV/spec.md",
      "domains/RELSUB/examples.md",
      "chapters/ch08_relationships.md",
      "domains/TM/spec.md",
      "domains/DM/examples.md",
      "domains/SUPPQUAL/spec.md",
      "domains/RELREC/assumptions.md"
    ],
    "off": {
      "answer": "Based on the DM domain specification, the required (Core=Req) variables in the DM domain are:\n\n| Variable | Label | Type | Role | Core |\n|----------|-------|------|------|------|\n| STUDYID | Study Identifier | Char | Identifier | Req |\n| DOMAIN | Domain Abbreviation | Char | Identifier | Req |\n| USUBJID | Unique Subject Identifier | Char | Identifier | Req |\n\n**[Source: domains/DM/spec.md]** — The DOMAIN variable is defined as Order 2, Label \"Domain Abbreviation\", Type Char, Role Identifier, Core Req, with CDISC Notes: \"Two-character abbreviation for the domain.\"\n\n**[Source: chapters/ch04_general_assumptions.md §4.2.2]** — Confirms that \"Required Identifiers (STUDYID, DOMAIN, USUBJID)\" are the core required identifiers that are not prefixed with the domain identifier.\n\n**[Source: chapters/ch04_general_assumptions.md §4.1.5]** — Defines Core=Req as: \"A Required variable is any variable that is basic to the identification of a data record (i.e., essential key variables and a topic variable) or is necessary to make the record meaningful. Required variables must always be included in the dataset and cannot be null for any record.\"\n\n**Note:** The DM domain specification table (spec.md) lists only these three variables as Core=Req. All other DM variables (such as BRTHDTC, AGE, AGEU, SEX, RACE, ETHNIC, ARMCD, ARM, ACTARMCD, ACTARM, ARMNRS, ACTARMUD, DTHFL, DTHDTC, DTHDY, RFSTDTC, RFENDTC, SITEID, INVID, INVNM, etc.) are either Expected (Exp) or Permissible (Perm)."
    },
    "on": {
      "answer": "Based on the retrieved context, the DM (Demographics) domain is a special-purpose domain that includes a set of essential standard variables that describe each subject in a clinical study **[Source: domains/DM/assumptions.md]**.\n\nThe context does not provide a complete list of all variables in the DM domain specification table. However, based on the available information, the following can be stated:\n\n- **DOMAIN** is a required (Req) variable in DM. Its definition is:\n  - **Label:** Domain Abbreviation\n  - **Type:** Char\n  - **Role:** Identifier\n  - **Core:** Req\n  - **CDISC Notes:** Two-character abbreviation for the domain.\n  - **[Source: domains/DM/spec.md]**\n\n- The context also notes that \"All Demographics (DM) domain variables other than DMDTC and DMDY\" are exceptions to the rule that variable names are prefixed with the domain identifier **[Source: chapters/ch04_general_assumptions.md]**. This implies that DM contains many variables, but their specific Core designations (Req, Exp, Perm) are not listed in the provided context.\n\n- The context provides a general definition of Core designations: a **Required (Req)** variable is basic to the identification of a data record or necessary to make the record meaningful, and it must always be included in the dataset and cannot be null for any record **[Source: chapters/ch04_general_assumptions.md]**.\n\n**Conclusion:** The context is insufficient to provide a complete list of all required (Core=Req) variables in the DM domain. Only the **DOMAIN** variable is explicitly identified as Req in the provided DM specification. To obtain the full list, one would need to read the complete `domains/DM/spec.md` file."
    }
  },
  {
    "id": "q24",
    "category": "single_domain",
    "question": "What is the EX (Exposure) domain used for and what is the Topic variable EXTRT?",
    "expected_facts": [
      "EXTRT",
      "Interventions",
      "protocol-specified"
    ],
    "expected_sources": [
      "domains/EX/spec.md"
    ],
    "sources": [
      "domains/EX/spec.md",
      "domains/EX/spec.md",
      "domains/EX/spec.md",
      "domains/EX/spec.md",
      "domains/EX/assumptions.md",
      "domains/EX/assumptions.md",
      "domains/EX/assumptions.md",
      "domains/EX/assumptions.md",
      "VARIABLE_INDEX.md",
      "domains/EC/assumptions.md",
      "domains/EC/spec.md",
      "domains/EX/assumptions.md",
      "chapters/ch04_general_assumptions.md",
      "domains/EX/examples.md",
      "domains/SR/examples.md"
    ],
    "off": {
      "answer": "## EX (Exposure) Domain — Purpose and Topic Variable\n\n### Domain Purpose\n\nThe EX (Exposure) domain represents **protocol-specified study treatment administrations** and is used to capture exposure to investigational products, active comparators, and placebo. Key characteristics:\n\n- **Required** for all studies that include protocol-specified study treatment **[Source: domains/EX/assumptions.md item_1b]**\n- Typically a **derived dataset** where EXDOSU reflects the protocol-specified unit per study treatment **[Source: domains/EX/assumptions.md item_1b]**\n- Contains **1 record per constant-dosing interval per subject** (sponsor-defined interval) **[Source: domains/EX/assumptions.md item_1d]**\n- Treatments that are **not protocol-specified** should be represented in CM or another Interventions domain **[Source: domains/EX/assumptions.md item_1a]**\n- **Collected** exposure data points are represented in the **EC (Exposure as Collected)** domain, not in EX **[Source: domains/EX/assumptions.md item_5]**\n\n### EXTRT — Name of Treatment\n\n| Attribute | Value |\n|-----------|-------|\n| **Label** | Name of Treatment |\n| **Type** | Char |\n| **Role** | Topic |\n| **Core** | Required |\n| **Controlled Terms** | — (not specified) |\n\n**[Source: domains/EX/spec.md via VARIABLE_INDEX.md]**\n\n### EXTRT Rules\n\n1. **Must include only the treatment name** — no dosage, formulation, or other qualifying information. For example:\n   - ❌ Invalid: `\"ASPIRIN 100MG TABLET\"`\n   - ✅ Valid: `EXTRT = \"ASPIRIN\"`, `EXDOSE = \"100\"`, `EXDOSU = \"mg\"`, `EXDOSFRM = \"TABLET\"`\n   \n   **[Source: domains/EX/assumptions.md item_2a]**\n\n2. **Placebo representation**: `EXTRT = \"PLACEBO\"` and `EXDOSE = \"0\"` (indicating 0 mg of active ingredient) **[Source: domains/EX/assumptions.md item_2b]**\n\n3. As the **Topic variable** for the Interventions class, EXTRT follows the general pattern where `--TRT` stores the treatment name **[Source: chapters/ch04_general_assumptions.md §4.3.6]**\n\n### Related Domains\n\n- **Same class (Interventions):** AG, CM, EC, ML, PR, SU\n- **Shared Dataset:** EC (Exposure as Collected) — EC captures collected data; EX captures derived protocol-specified exposure **[Source: domains/EX/spec.md — Related Domains]**"
    },
    "on": {
      "answer": "Based on the retrieved context, the EX (Exposure) domain is used to represent protocol-specified study treatment exposure, and the Topic variable is EXTRT.\n\n## EX Domain Purpose\n\nThe EX domain captures exposure to protocol-specified study treatments. Examples include placebo, active comparators, and investigational products. Treatments that are **not** protocol-specified should be represented in the Concomitant/Prior Medications (CM) or another Interventions domain as appropriate. **[Source: domains/EX/assumptions.md -- item_1]**\n\nThe EX domain is recognized in most cases as a **derived dataset**, where EXDOSU reflects the protocol-specified unit per study treatment. Collected data points (e.g., number of tablets, total volume infused) along with additional inputs (e.g., randomization file, concentration, dosage strength, product accountability) are used to derive records in the EX domain. **[Source: domains/EX/assumptions.md -- item_1]**\n\nThe EX domain is **required for all studies that include protocol-specified study treatment**. Exposure records may be directly or indirectly determined; metadata should describe how the records were derived. **[Source: domains/EX/assumptions.md -- item_1]**\n\nThe EX domain should contain **1 record per constant-dosing interval per subject**. Sponsors define the constant-dosing interval, which may include any period of time that can be described in terms of a known treatment given at a consistent dose, frequency, infusion rate, and so on. **[Source: domains/EX/assumptions.md -- item_1]**\n\n## EXTRT — Topic Variable\n\n- **Label:** Name of Treatment\n- **Type:** Char\n- **Role:** Topic\n- **Core:** Req (Required)\n- **Controlled Terms:** (none specified)\n\n**[Source: domains/EX/spec.md -- EXTRT (via VARIABLE_INDEX.md)]**\n\n**CDISC Notes:** EXTRT captures the name of the protocol-specified study treatment and is the topic variable. It is a required variable and must have a value. EXTRT must include **only the treatment name** and must **not** include dosage, formulation, or other qualifying information. For example, \"ASPIRIN 100MG TABLET\" is not a valid value for EXTRT. This example should be expressed as EXTRT = \"ASPIRIN\", EXDOSE = \"100\", EXDOSU = \"mg\", and EXDOSFRM = \"TABLET\". **[Source: domains/EX/assumptions.md -- item_2]**\n\nDoses of placebo should be represented by EXTRT = \"PLACEBO\" and EXDOSE = \"0\" (indicating 0 mg of active ingredient was taken or administered). **[Source: domains/EX/assumptions.md -- item_2]**"
    }
  },
  {
    "id": "q06",
    "category": "cross_domain",
    "question": "What is SUPPQUAL and when should supplemental qualifiers be used instead of adding variables to a domain?",
    "expected_facts": [
      "QNAM",
      "QVAL",
      "non-standard"
    ],
    "expected_sources": [
      "domains/SUPPQUAL/spec.md"
    ],
    "sources": [
      "domains/SUPPQUAL/spec.md",
      "domains/SUPPQUAL/spec.md",
      "domains/SUPPQUAL/spec.md",
      "domains/SUPPQUAL/spec.md",
      "domains/SUPPQUAL/assumptions.md",
      "chapters/ch08_relationships.md",
      "chapters/ch08_relationships.md",
      "chapters/ch08_relationships.md",
      "model/06_relationship_datasets.md",
      "chapters/ch08_relationships.md",
      "chapters/ch04_general_assumptions.md",
      "chapters/ch08_relationships.md",
      "VARIABLE_INDEX.md",
      "chapters/ch04_general_assumptions.md",
      "chapters/ch04_general_assumptions.md"
    ],
    "off": {
      "answer": "## SUPPQUAL Definition and Usage\n\n**SUPPQUAL** (Supplemental Qualifiers) is a special-purpose domain model used to capture non-standard variables (NSVs) that cannot be accommodated in standard SDTM domain datasets. It is structured as separate SUPP-- datasets (e.g., `suppae.xpt`, `suppcm.xpt`) with a one-to-one correspondence between a domain dataset and its Supplemental Qualifier dataset. **[Source: model/06_relationship_datasets.md §6.2]**\n\n### Key Variables\n\n| Variable | Label | Type | Role | Core |\n|----------|-------|------|------|------|\n| QNAM | Qualifier Variable Name | Char | Topic | Req |\n| QLABEL | Qualifier Variable Label | Char | Synonym Qualifier | Req |\n| QVAL | Data Value | Char | Result Qualifier | Req |\n| QORIG | Origin | Char | Record Qualifier | Req |\n| QEVAL | Evaluator | Char | Record Qualifier | Exp (C78735) |\n\n**[Source: domains/SUPPQUAL/spec.md; VARIABLE_INDEX.md § SUPPQUAL]**\n\n### When to Use Supplemental Qualifiers\n\nSupplemental qualifiers should be used when:\n\n1. **Sponsor-defined variables exist** that are not part of the standard SDTM domain model. The SDTM does not allow the addition of new variables to standard domains. **[Source: domains/SUPPQUAL/assumptions.md § overview]**\n\n2. **Attributions are needed** — subjective interpretations or classifications of observations by specific evaluators (e.g., a flag indicating clinical significance, or secondary evaluations by an adjudication committee). **[Source: domains/SUPPQUAL/assumptions.md § overview]**\n\n3. **Secondary evaluations exist** — when primary and secondary evaluations of specific qualifier variables exist, the primary evaluation goes in the standard domain, and the secondary evaluation goes in SUPP-- with QNAM formed by appending \"1\" to the standard variable name. **[Source: chapters/ch04_general_assumptions.md §4.5.4]**\n\n4. **Text strings exceed 200 characters** — the first 200 characters go in the parent domain variable, and each additional 200 characters go in SUPP-- records. **[Source: chapters/ch04_general_assumptions.md §4.5.3.2]**\n\n### When NOT to Use Supplemental Qualifiers\n\nThe following data should **not** be submitted as supplemental qualifiers **[Source: chapters/ch08_relationships.md §8.4.4]**:\n\n- Subject-level objective data that fit in Subject Characteristics (SC)\n- Findings interpretations that should be added as an additional test code and result\n- Comments related to records — these should go in the CO (Comments) domain\n- Data not directly related to records in a parent domain — these should go in a separate general observation class domain or special-purpose domain\n\n### Key Rules\n\n- All records in SUPP-- must have a value for QVAL; null QVAL records must be deleted prior to submission. **[Source: domains/SUPPQUAL/spec.md § QVAL; chapters/ch08_relationships.md § Key Rules]**\n- The combined set of values for STUDYID, RDOMAIN, USUBJID, IDVAR, IDVARVAL, and QNAM must be unique. **[Source: domains/SUPPQUAL/assumptions.md § overview]**\n- For DM records, IDVAR and IDVARVAL are null because STUDYID, RDOMAIN, and USUBJID are sufficient to identify the unique parent record. **[Source: chapters/ch08_relationships.md § Key Rules]**\n- QNAM cannot exceed 8 characters, cannot start with a number, and can only contain letters, numbers, or underscores. **[Source: domains/SUPPQUAL/spec.md § QNAM]**\n- For objective data, QEVAL should be null; for subjective data, QEVAL should reflect the evaluator's role. **[Source: domains/SUPPQUAL/assumptions.md § overview]**"
    },
    "on": {
      "answer": "Based on the retrieved context, here is the definition of SUPPQUAL and guidance on when to use supplemental qualifiers.\n\n### What is SUPPQUAL?\n\nSUPPQUAL (Supplemental Qualifiers) is a special-purpose dataset model used to capture non-standard variables (NSVs) and their association to parent records in general-observation class datasets (Events, Findings, Interventions), Demographics (DM), and Subject Visits (SV) **[Source: domains/SUPPQUAL/assumptions.md]**.\n\nThe SDTM does not allow the addition of new variables to standard domain datasets. Therefore, SUPP-- datasets (e.g., `suppae.xpt`, `suppcm.xpt`) are used to represent sponsor-defined variables that do not have a standard SDTM variable **[Source: domains/SUPPQUAL/assumptions.md]**.\n\nKey structural elements of SUPP-- include:\n- **QNAM**: The 8-character short name of the qualifier variable (Topic, Req) **[Source: domains/SUPPQUAL/spec.md]**\n- **QLABEL**: The human-readable label for QNAM (Synonym Qualifier, Req) **[Source: model/06_relationship_datasets.md]**\n- **QVAL**: The actual data value (Result Qualifier, Req) **[Source: domains/SUPPQUAL/spec.md]**\n- **QORIG**: Origin of the data (e.g., \"CRF\", \"Derived\") (Record Qualifier, Req) **[Source: chapters/ch08_relationships.md]**\n- **QEVAL**: Evaluator role for subjective data (Record Qualifier, Exp, CT: C78735) **[Source: domains/SUPPQUAL/spec.md]**\n\n### When to Use Supplemental Qualifiers\n\nSupplemental qualifiers should be used when you have **non-standard variables** that cannot be accommodated in the standard domain datasets **[Source: model/06_relationship_datasets.md]**. Specific use cases include:\n\n1. **Sponsor-defined variables**: Any data collected that does not have a corresponding standard SDTM variable in the parent domain **[Source: domains/SUPPQUAL/assumptions.md]**\n\n2. **Attributions**: Interpretations or subjective classifications of observations by specific evaluators (e.g., a flag indicating clinical significance assigned by an adjudication committee) **[Source: domains/SUPPQUAL/assumptions.md]**\n\n3. **Secondary evaluations**: When primary and secondary evaluations exist for specific qualifier variables, the primary evaluation goes in the standard domain, and the secondary evaluation goes in SUPP-- **[Source: chapters/ch04_general_assumptions.md]**\n\n4. **Long text strings**: When text exceeds 200 characters, the first 200 characters go in the parent domain variable, and each additional 200 characters go in SUPP-- records **[Source: chapters/ch04_general_assumptions.md]**\n\n### When NOT to Use Supplemental Qualifiers\n\nThe following data should **not** be submitted as supplemental qualifiers **[Source: chapters/ch08_relationships.md]**:\n\n- Subject-level objective data that fit in Subject Characteristics (SC)\n- Findings interpretations that should be added as an additional test code and result\n- Comments related to a record or records (these should go in the CO domain)\n- Data not directly related to records in a parent domain (these should go in a separate general observation class domain or special-purpose domain)"
    }
  },
  {
    "id": "q28",
    "category": "cross_domain",
    "question": "What is the FA (Findings About Events or Interventions) domain and how does it link to parent domains like AE or CM using FAOBJ?",
    "expected_facts": [
      "Findings About",
      "FAOBJ",
      "FATESTCD"
    ],
    "expected_sources": [
      "domains/FA/spec.md"
    ],
    "sources": [
      "VARIABLE_INDEX.md",
      "domains/FA/spec.md",
      "domains/AE/spec.md",
      "domains/CM/spec.md",
      "domains/FA/assumptions.md",
      "model/02_observation_classes.md",
      "chapters/ch08_relationships.md",
      "domains/FA/assumptions.md",
      "chapters/ch02_fundamentals.md",
      "domains/FA/examples.md",
      "domains/FA/examples.md",
      "domains/SR/spec.md",
      "domains/FA/assumptions.md",
      "domains/FA/examples.md",
      "domains/FA/spec.md"
    ],
    "off": {
      "answer": "## FA (Findings About Events or Interventions) Domain\n\nThe FA domain is a **Findings About** subtype of the Findings Observation Class, used to record findings about observations in the Interventions or Events classes **[Source: model/02_observation_classes.md]**. It represents data that describe properties, measurements, or assessments of events or interventions, rather than the events/interventions themselves.\n\n### Key Characteristics\n\n**Structure:** One record per finding\n\n**Core Variables:**\n\n| Variable | Label | Type | Role | Core |\n|----------|-------|------|------|------|\n| FATESTCD | Findings About Test Short Name | Char | Topic | Req |\n| FATEST | Findings About Test Name | Char | Synonym Qualifier | Req |\n| FAOBJ | Object of the Observation | Char | Record Qualifier | Req |\n| FAORRES | Result or Finding in Original Units | Char | Result Qualifier | Exp |\n| FASTRESC | Character Result/Finding in Std Format | Char | Result Qualifier | Exp |\n| FADTC | Date/Time of Collection | Char | Timing | Exp |\n\n**[Source: domains/FA/spec.md]**\n\n### When to Use FA (Three Criteria)\n\nPer **Section 6.4.1**, FA should be used when:\n\n1. **Different timing from the event/intervention as a whole** — Assessments of parts of events (snapshots or slices) at specific time points, such as severity of a symptom measured at each visit rather than the overall event severity **[Source: domains/FA/assumptions.md]**\n\n2. **Requires more than 1 variable for representation** — Data that cannot be represented as a single supplemental qualifier (e.g., a measurement with both value and unit) **[Source: domains/FA/assumptions.md]**\n\n3. **Indicates occurrence of pre-specified AEs** — Solicited occurrence data for prespecified adverse events at each visit **[Source: domains/FA/assumptions.md]**\n\n### Linking to Parent Domains via FAOBJ\n\n**FAOBJ** (Object of the Observation) is the **linking variable** that connects FA records to their parent event or intervention records. It describes the event or intervention whose property is being measured in FATESTCD/FATEST **[Source: model/02_observation_classes.md]**.\n\n**How FAOBJ works:**\n\n1. **FAOBJ value = parent domain's coded term** — Typically populated with the value from the parent domain's decoding variable:\n   - For AE: FAOBJ = AEDECOD (e.g., \"NAUSEA\", \"DIARRHEA\") **[Source: domains/FA/examples.md — Example 6]**\n   - For CM: FAOBJ would use the coded medication term\n\n2. **FASPID links to parent's identifier** — When available, FASPID contains the same value as the parent domain's sponsor identifier (e.g., AESPID) to enable record-level linkage **[Source: domains/FA/examples.md — Example 6]**\n\n3. **Optional RELREC** — If explicit relationship records are needed, RELREC can be used to link FA records to parent domain records using IDVAR/IDVARVAL pairs **[Source: chapters/ch08_relationships.md]**\n\n### Example: FA Linking to AE\n\nFrom **Example 6** (severity assessments at each visit):\n\n**AE record:**\n- AETERM = \"Morning queasiness\", AEDECOD = \"Nausea\", AESEV = \"MODERATE\" (overall max)\n\n**FA records (linked via FAOBJ):**\n| FATESTCD | FATEST | FAOBJ | FAORRES | VISITNUM | FADTC |\n|----------|--------|-------|---------|----------|-------|\n| SEV | Severity/Intensity | Nausea | MILD | 2 | 2006-02-02 |\n| SEV | Severity/Intensity | Nausea | MODERATE | 3 | 2006-02-09 |\n\n**[Source: domains/FA/examples.md — Example 6]**\n\n### Related Domains\n\nFA can link to any of these parent domains:\n- **AE** — findings about adverse events\n- **CM** — findings about concomitant medications\n- **PR** — findings about procedures\n- **EX/EC** — findings about exposure\n- **ML** — findings about meals\n- **SU** — findings about substance use\n\n**[Source: domains/FA/spec.md — Related Domains]**\n\n### Key Rule\n\nWhen FA represents findings about a **part** of an event/intervention (different timing from the whole), FATESTCD/FATEST should use the same names as the corresponding qualifier variables in the parent domain (e.g., SEV for severity, OCCUR for occurrence) **[Source: domains/FA/assumptions.md — item 4]**."
    },
    "on": {
      "answer": "## FA (Findings About Events or Interventions) Domain\n\nThe FA domain is a **Findings About** subtype of the Findings observation class, used to record findings related to observations in the Interventions or Events classes. **[Source: model/02_observation_classes.md]**\n\n### Domain Structure\n\n**Class:** Findings About (subtype of Findings)  \n**Structure:** One Record per Finding  \n**Key Variables:**\n\n| Variable | Label | Type | Role | Core |\n|----------|-------|------|------|------|\n| FATESTCD | Findings About Test Short Name | Char | Topic | Req |\n| FATEST | Findings About Test Name | Char | Synonym Qualifier | Req |\n| FAOBJ | Object of the Observation | Char | Record Qualifier | Req |\n| FAORRES | Result or Finding in Original Units | Char | Result Qualifier | Exp |\n| FASTRESC | Character Result/Finding in Std Format | Char | Result Qualifier | Exp |\n| FASTRESN | Numeric Result/Finding in Standard Units | Num | Result Qualifier | Perm |\n| FADTC | Date/Time of Collection | Char | Timing | Exp |\n\n**[Source: VARIABLE_INDEX.md — FA section]**\n\n### When to Use FA (Three Criteria)\n\nPer **Section 6.4.1**, FA should be used when:\n\n1. **Criterion 1:** Data or observations that have **different timing from an associated event or intervention as a whole** — e.g., severity of a symptom assessed at multiple visits for an AE that spans weeks\n2. **Criterion 2:** An observation about an event or intervention which requires **more than 1 variable** for its representation (preventing inclusion as a supplemental qualifier)\n3. **Criterion 3:** Data or information that indicate the **occurrence of pre-specified AEs**\n\n**[Source: domains/FA/assumptions.md — item_6 (Section 6.4.1)]**\n\n### FAOBJ — The Linking Variable\n\n**FAOBJ** (Object of the Observation) is the variable that links FA records to their parent domain records. Its specification:\n\n- **Label:** Object of the Observation\n- **Type:** Char\n- **Role:** Record Qualifier\n- **Core:** Req\n- **CDISC Notes:** Used to describe the object or focal point of the findings observation that is represented by --TEST. Examples: the term (e.g., \"Acne\") describing a clinical sign or symptom that is being measured by a severity test; an event (e.g., \"VOMIT, where the volume of vomit is being measured by a VOLUME test).\n\n**[Source: domains/FA/spec.md — FAOBJ]**\n\n### How FAOBJ Links to Parent Domains\n\nFAOBJ is populated with the **name of the event or intervention** about which the finding was made. The linking mechanism works as follows:\n\n**For AE (Adverse Events):**\n- FAOBJ contains the value from **AEDECOD** (the dictionary-derived term for the adverse event)\n- Example: If AE has `AEDECOD = \"Nausea\"`, then FA records about that AE will have `FAOBJ = \"Nausea\"`\n- The FASPID variable may also carry the **AESPID** value from the AE record to further identify the specific event\n\n**[Source: domains/FA/examples.md — Example 6]**\n\n**For CM (Concomitant Medications):**\n- FAOBJ contains the name of the medication or intervention being assessed\n- The FA domain's Related Domains section lists CM as a source domain: \"findings about concomitant medications\"\n\n**[Source: domains/FA/spec.md — Related Domains]**\n\n### Practical Examples\n\n**Example 1 — Severity Over Time (Criterion 1):**\nAn AE \"Morning queasiness\" (AEDECOD = \"Nausea\") lasting from 2006-02-01 to 2006-02-23 has severity assessed at multiple visits. The FA records show:\n\n| FATESTCD | FATEST | FAOBJ | FAORRES | VISITNUM | FADTC |\n|----------|--------|-------|---------|----------|-------|\n| SEV | Severity/Intensity | Nausea | MILD | 2 | 2006-02-02 |\n| SEV | Severity/Intensity | Nausea | MODERATE | 3 | 2006-02-09 |\n\nHere, FAOBJ = \"Nausea\" (matching AEDECOD) links each FA record to the parent AE. **[Source: domains/FA/examples.md — Example 6]**\n\n**Example 2 — Prespecified AEs (Criterion 3):**\nA CRF asks \"Did the following occur?\" at each visit. FA records capture occurrence:\n\n| FATESTCD | FATEST | FAOBJ | FAORRES | VISITNUM |\n|----------|--------|-------|---------|----------|\n| OCCUR | Occurrence Indicator | Headache | Y | 2 |\n| OCCUR | Occurrence Indicator | Respiratory Infection | N | 2 |\n\nFor each FA record where FAORRES = \"Y\", a corresponding AE record exists with `AEPRESP = \"Y\"`. **[Source: domains/FA/examples.md — Example 4]**\n\n**Example 3 — Rash Assessment (Criterion 1 + 2):**\nAn injection site rash AE has detailed assessments at follow-up visits:\n\n| FATESTCD | FATEST | FAOBJ | FAORRES | FAORRESU | VISITNUM |\n|----------|--------|-------|---------|----------|----------|\n| LDIAM | Longest Diameter | Injection Site Rash | 2.5 | IN | 3 |\n| MACRNG | Number of Macules Range | Injection Site Rash | 26 to 100 | | 3 |\n\nFAOBJ = \"Injection Site Rash\" links to the parent AE record's AETERM/AEDECOD. **[Source: domains/FA/examples.md — Example 2]**\n\n### Related Domains\n\nThe FA domain has explicit relationships with these source domains:\n\n| Source Domain | Relationship |\n|---------------|--------------|\n| AE | Findings about adverse events |\n| CM | Findings about concomitant medications |\n| PR | Findings about procedures |\n| EX | Findings about exposure |\n| EC | Findings about exposure as collected |\n| ML | Findings about meals |\n| SU | Findings about substance use |\n\n**[Source: domains/FA/spec.md — Related Domains]**\n\n### Key Rules for FAOBJ Usage\n\n1. **FAOBJ is required** for every FA record — both FATESTCD and FAOBJ must be populated to fully describe the observation **[Source: model/02_observation_classes.md]**\n2. When FATESTCD values match variable names from parent domains (e.g., SEV, OCCUR, TOXGR), FAOBJ identifies which event or intervention the finding applies to **[Source: domains/FA/assumptions.md — item_4]**\n3. FAOBJ typically contains the **dictionary-coded term** (AEDECOD) rather than the verbatim term (AETERM) **[Source: domains/FA/examples.md — Example 6]**\n4. The FA domain should generally **not** use qualifiers like --BODSYS, --MODIFY, --SEV, or --TOXGR, as these are properties of the parent event/intervention record **[Source: domains/FA/assumptions.md — item_6]**"
    }
  },
  {
    "id": "q35",
    "category": "concept",
    "question": "What is Controlled Terminology (CT) in SDTM and how does it constrain the values that variables can contain?",
    "expected_facts": [
      "codelist",
      "Controlled Terms"
    ],
    "expected_sources": [
      "chapters/ch04"
    ],
    "sources": [
      "chapters/ch04_general_assumptions.md",
      "chapters/ch04_general_assumptions.md",
      "model/01_concepts_and_terms.md",
      "model/01_concepts_and_terms.md",
      "chapters/ch10_appendices.md",
      "chapters/ch04_general_assumptions.md",
      "domains/TR/assumptions.md",
      "chapters/ch04_general_assumptions.md",
      "chapters/ch01_introduction.md",
      "chapters/ch04_general_assumptions.md",
      "domains/TS/assumptions.md",
      "chapters/ch08_relationships.md",
      "chapters/ch02_fundamentals.md",
      "chapters/ch04_general_assumptions.md",
      "chapters/ch04_general_assumptions.md"
    ],
    "off": {
      "answer": "## Controlled Terminology (CT) in SDTM\n\n**Controlled Terminology (CT)** in SDTM refers to standardized, centrally managed sets of permissible values for specific variables, maintained by the CDISC Controlled Terminology Team through NCI Enterprise Vocabulary Services (NCI-EVS). CT ensures consistent representation of data across studies and sponsors for regulatory submission.\n\n**[Source: chapters/ch10_appendices.md]**\n\n---\n\n## How CT Constrains Variable Values\n\n### 1. **Codelist Assignment**\n\nEach variable that requires CT has a **Controlled Terms, Codelist or Format** column in its domain specification. This column indicates the source of permissible values in one of several ways:\n\n| Representation | Meaning | Example |\n|---------------|---------|---------|\n| `(NY)` | CDISC codelist name (hyperlinked) | Yes/No codelist |\n| `\"AE\"` | Single applicable value | DOMAIN variable |\n| `*` | No CDISC CT available yet; sponsor may define own | Custom domains |\n| `\"MedDRA\"` | External terminology system | AELLT, AEDECOD |\n| ISO 8601 format | Date/time format constraint | --DTC variables |\n\n**[Source: chapters/ch04_general_assumptions.md §4.3.1]**\n\n### 2. **Permissible Value Sets**\n\n- All values in the permissible value set for the study **must be included** in Define-XML, whether or not they appear in submitted data.\n- Only values that were part of **planned data collection** should be included in Define-XML.\n- A **null value** should not be included in the permissible value set (null is implied unless the variable is Required).\n- If a codelist exists but not every value was collected, only the collected subset is declared.\n\n**[Source: chapters/ch04_general_assumptions.md §4.3.3]**\n\n### 3. **Text Case**\n\nTerms from controlled terminology **must be in the case** that appears in the source codelist or code system (e.g., CDISC codelist or MedDRA). This ensures consistency across submissions.\n\n**[Source: chapters/ch04_general_assumptions.md §4.3.2]**\n\n### 4. **Variable Length Constraints**\n\nFor variables using CT, the variable length can be set to the length of the **longest term** in the codelist, rather than using the maximum 200-character default. This helps reduce transport file sizes.\n\n**[Source: chapters/ch04_general_assumptions.md §4.2.9]**\n\n### 5. **Domain-Specific CT Associations**\n\nSome domains have explicit CT associations between test codes and result values. For example:\n- In **TR (Tumor Results)**, TRTESTCD/TRTEST values are published as CT, and for some tests, CDISC CT includes codelists for use with TRORRES. These associations are documented in the Oncology codetable.\n- In **TS (Trial Summary)**, CDISC CT includes codelists for use with TSVAL, with associations documented in the TS codetable.\n\n**[Source: domains/TR/assumptions.md §3; domains/TS/assumptions.md §8]**\n\n---\n\n## CT Management and Updates\n\n- CDISC CT has a **3-month development period** with quarterly public-review comment periods followed by publication release.\n- The most current terminology packages are available at: https://www.cdisc.org/standards/terminology/controlled-terminology\n- As of the 2015-12-18 release, questionnaire terminology and other domain terminology were **merged into a single publication**.\n- Starting with SDTMIG 3.2, Appendix C was simplified; Appendix C1 contains standard supplemental qualifier name codes (e.g., AESOSP, AETRTEM, --REAS).\n\n**[Source: chapters/ch10_appendices.md; chapters/ch01_introduction.md §1.3]**\n\n---\n\n## Summary\n\nControlled Terminology constrains variable values by:\n1. **Defining permissible value sets** (codelists) for specific variables\n2. **Requiring exact case matching** to the source terminology\n3. **Mandating declaration** of all planned values in Define-XML\n4. **Associating test codes with result codelists** in certain domains (e.g., TR, TS)\n5. **Providing external references** (MedDRA, ISO 3166) where CDISC CT does not exist\n\nVariables without available CDISC CT are marked with `*`, allowing sponsor-defined values, but CDISC encourages future CT development for these cases."
    },
    "on": {
      "answer": "# Controlled Terminology (CT) in SDTM\n\n## Definition and Purpose\n\nControlled Terminology (CT) in SDTM refers to standardized, centrally managed sets of permissible values for specific variables. CDISC Terminology is centrally managed by the CDISC Controlled Terminology Team, supporting the terminology needs of all CDISC foundational standards (SDTM, CDASH, ADaM, SEND) and all disease/therapeutic area standards **[Source: chapters/ch10_appendices.md]**.\n\n## How CT Constrains Variable Values\n\n### 1. Representation in Domain Specifications\n\nControlled terminology is represented in the \"Controlled Terms, Codelist or Format\" column of domain specifications in the following ways **[Source: chapters/ch04_general_assumptions.md §4.3.1]**:\n\n| Representation | Meaning |\n|----------------|---------|\n| Single asterisk (*) | CDISC CT not currently available; sponsors may have their own terminology and/or CDISC may develop it in the future |\n| Single applicable value (e.g., \"PR\") | The only allowed value for the variable (e.g., DOMAIN) |\n| CDISC codelist name as hyperlink (e.g., \"(NY)\") | Values must come from the named CDISC codelist |\n| Short reference to external terminology (e.g., \"MedDRA\", \"ISO 3166-1 alpha-3\") | Values must conform to the external standard |\n\n### 2. Inclusion in Define-XML\n\nThe controlled terminology (or a reference to it) should be included in the Define-XML document wherever applicable. All values in the permissible value set for the study should be included, whether or not they are represented in submitted data. Note that a null value should not be included in the permissible value set — a null value is implied for any list of controlled terms unless the variable is \"Required\" **[Source: chapters/ch04_general_assumptions.md §4.3.3]**.\n\n### 3. Subsetting of Codelists\n\nWhen a domain or dataset specification includes a codelist for a variable, not every value in that codelist may have been part of planned data collection; only values that were part of planned data collection should be included in the Define-XML document. For example, `--PRESP` variables are associated with the NY codelist, but only the value \"Y\" is allowed in `--PRESP` variables **[Source: chapters/ch04_general_assumptions.md §4.3.3]**.\n\n### 4. Text Case Requirements\n\nTerms from controlled terminology should be in the case that appears in the source codelist or code system (e.g., CDISC codelist or external code system such as MedDRA) **[Source: chapters/ch04_general_assumptions.md §4.3.2]**.\n\n### 5. Variable Length Implications\n\nThe length for variables that use controlled terminology can be set to the length of the longest term in the codelist **[Source: chapters/ch04_general_assumptions.md §4.2.9]**.\n\n## Domain-Specific Examples of CT Application\n\n- **Tumor/Lesion Results (TR):** `TRTESTCD`/`TRTEST` values are published as Controlled Terminology. For some values, CDISC CT includes codelists for use with `TRORRES`. The associations between test values and results are in the Oncology codetable **[Source: domains/TR/assumptions.md item_3]**.\n\n- **Trial Summary (TS):** For some trial summary parameters, CDISC CT includes codelists for use with `TSVAL`. The associations between trial summary parameters and response codelists are in the TS codetable. Recipients may also specify controlled terminology for `TSVAL`, which may replace CDISC CT for a given parameter (e.g., US FDA Data Standards Catalog includes terminologies for certain trial summary parameters) **[Source: domains/TS/assumptions.md item_8]**.\n\n## Source of CT\n\nVisit the CDISC Controlled Terminology page (https://www.cdisc.org/standards/terminology/controlled-terminology) for the most recently published terminology packages. The NCI Enterprise Vocabulary Services CDISC Terminology website (https://www.cancer.gov/research/resources/terminology/cdisc) provides access to the full list of CDISC terminology **[Source: chapters/ch10_appendices.md]**.\n\n## Key Constraint Summary\n\n| Aspect | Constraint |\n|--------|------------|\n| **Permissible values** | Must come from the specified codelist or external standard |\n| **Null values** | Implicitly allowed unless variable is Required; not listed in permissible value set |\n| **Text case** | Must match the source codelist |\n| **Variable length** | Can be set to the length of the longest term |\n| **Define-XML** | Must include all permissible values used in the study |\n| **Subsetting** | Only values that were part of planned data collection should be included in Define-XML |"
    }
  },
  {
    "id": "q39",
    "category": "concept",
    "question": "What is the Findings About observation class and how does it differ from the standard Findings class?",
    "expected_facts": [
      "Findings About",
      "FAOBJ"
    ],
    "expected_sources": [
      "model/02_observation_classes.md"
    ],
    "sources": [
      "domains/BS/spec.md",
      "chapters/ch08_relationships.md",
      "domains/CP/spec.md",
      "model/02_observation_classes.md",
      "domains/CV/spec.md",
      "chapters/ch02_fundamentals.md",
      "domains/DA/spec.md",
      "chapters/ch08_relationships.md",
      "domains/DD/spec.md",
      "chapters/ch04_general_assumptions.md",
      "domains/EG/spec.md",
      "chapters/ch03_submitting_data.md",
      "domains/FT/spec.md",
      "domains/FA/assumptions.md",
      "domains/GF/spec.md"
    ],
    "off": {
      "answer": "## Findings About Observation Class\n\nThe **Findings About** observation class is a **subtype** of the Findings general observation class, designed specifically to record findings about events or interventions rather than direct subject measurements. **[Source: model/02_observation_classes.md]**\n\n### Key Differences\n\n| Aspect | Standard Findings | Findings About |\n|--------|------------------|----------------|\n| **Purpose** | Observations from planned evaluations (lab tests, ECGs, questionnaires) | Findings about events or interventions |\n| **Topic** | Direct subject measurements/tests | Properties of an event or intervention |\n| **Unique Variable** | None | **--OBJ** (Object of the Observation) |\n| **Example** | LBTESTCD = \"GLUC\" (blood glucose) | FATESTCD = \"SEV\" (severity of an AE) |\n\n### The --OBJ Variable\n\nThe defining characteristic of Findings About is the **--OBJ** variable:\n\n| Attribute | Value |\n|-----------|-------|\n| **Label** | Object of the Observation |\n| **Type** | Char |\n| **Role** | Record Qualifier |\n| **Position** | Immediately after --TEST |\n\n**[Source: model/02_observation_classes.md]**\n\n`--OBJ` describes the event or intervention whose property is being measured in `--TESTCD`/`--TEST`. Both `--OBJ` and `--TESTCD` are required to be populated for every record. **[Source: model/02_observation_classes.md]**\n\n### When to Use Findings About (3 Criteria)\n\nPer **SDTMIG §6.4.1**, Findings About should be used when:\n\n1. **Different timing from associated event/intervention** — Assessments of parts of events (snapshots/slices) at specific time points, rather than the event as a whole\n2. **Requires >1 variable** — Data about an event/intervention needing multiple variables, preventing representation as supplemental qualifiers\n3. **Pre-specified AE occurrence** — Data indicating occurrence of pre-specified adverse events\n\n**[Source: domains/FA/assumptions.md]**\n\n### Disallowed Qualifiers in FA\n\nThe following qualifiers should generally **not** be used in Findings About domains:\n- `--BODSYS`\n- `--MODIFY`\n- `--SEV`\n- `--TOXGR`\n\n**[Source: domains/FA/assumptions.md]**\n\n### Practical Example\n\nWhen collected data fit a qualifier variable name, that name should be used as the value of `FATESTCD`:\n\n| FATESTCD | FATEST | FAOBJ |\n|----------|--------|-------|\n| OCCUR | Occurrence Indicator | Headache |\n| SEV | Severity/Intensity | Headache |\n| TOXGR | Toxicity Grade | Headache |\n\n**[Source: model/02_observation_classes.md]**\n\n### Structural Distinction\n\n- **Standard Findings**: `--TESTCD`/`--TEST` describe the measurement directly (e.g., lab test name)\n- **Findings About**: `--TESTCD`/`--TEST` describe the measurement/evaluation, while `--OBJ` identifies the event/intervention being evaluated\n\nThe FA domain is the primary implementation of this structure, but the pattern applies to any domain modeled as Findings About Events or Findings About Interventions. **[Source: model/02_observation_classes.md]**"
    },
    "on": {
      "answer": "## Findings About Observation Class\n\nThe **Findings About** observation class is a **subtype** of the Findings general observation class, used to record findings that are *about* events or interventions, rather than direct measurements on a subject.\n\n### Key Differences from Standard Findings\n\n| Aspect | Standard Findings | Findings About |\n|--------|-------------------|----------------|\n| **Subject of measurement** | Direct measurements on the subject (e.g., lab tests, vital signs) | Measurements *about* an event or intervention (e.g., severity of a symptom at a specific time) |\n| **Unique variable** | None | **--OBJ** (Object of the Observation) — describes the event or intervention whose property is being measured |\n| **Topic variables** | --TESTCD / --TEST | --TESTCD / --TEST (same structure) |\n| **Result variables** | --ORRES, --STRESC, --STRESN | Same structure |\n| **Qualifier restrictions** | Full set of Findings qualifiers available | Certain qualifiers should generally **not** be used: --BODSYS, --MODIFY, --SEV, --TOXGR **[Source: domains/FA/assumptions.md]** |\n\n### The --OBJ Variable\n\nThe distinguishing feature of Findings About is the **--OBJ** variable:\n\n| Attribute | Value |\n|-----------|-------|\n| **Label** | Object of the Observation |\n| **Type** | Char |\n| **Role** | Record Qualifier |\n| **Notes** | Used in domains modeled as Findings About Events or Findings About Interventions. Describes the event or intervention whose property is being measured in --TESTCD/--TEST. Both --OBJ and --TESTCD are required to be populated for every record. **[Source: model/02_observation_classes.md]** |\n\n### When to Use Findings About (3 Criteria)\n\nPer the SDTMIG, data should be placed in the Findings About structure when any of the following criteria are met **[Source: domains/FA/assumptions.md]** :\n\n1. **Different timing from the associated event/intervention as a whole** — e.g., symptoms measured at multiple time points that are \"snapshots\" of an ongoing event, rather than the event as a whole.\n\n2. **Requires more than 1 variable for representation** — preventing inclusion as a supplemental qualifier (SUPP--).\n\n3. **Indicates the occurrence of pre-specified AEs** — data that indicate occurrence of pre-specified adverse events.\n\n### Example Usage\n\nWhen collected data fit a qualifier variable name, that name is used as the value of FATESTCD:\n\n| FATESTCD | FATEST |\n|----------|--------|\n| OCCUR | Occurrence Indicator |\n| SEV | Severity/Intensity |\n| TOXGR | Toxicity Grade |\n\n**[Source: model/02_observation_classes.md]**\n\n### Structural Placement\n\nThe --OBJ variable is ordered immediately after the --TEST variable among Findings qualifiers. All other Findings class variables (Identifiers, Timing, and general Findings qualifiers) may be added to the FA domain, with the exception of the restricted qualifiers noted above. **[Source: model/02_observation_classes.md; domains/FA/assumptions.md]**"
    }
  },
  {
    "id": "q17",
    "category": "mixed",
    "question": "How are date and time variables formatted in SDTM and what suffix do they use?",
    "expected_facts": [
      "ISO 8601",
      "DTC"
    ],
    "expected_sources": [
      "chapters/ch04"
    ],
    "sources": [
      "chapters/ch04_general_assumptions.md",
      "model/01_concepts_and_terms.md",
      "chapters/ch04_general_assumptions.md",
      "chapters/ch04_general_assumptions.md",
      "chapters/ch01_introduction.md",
      "domains/VS/spec.md",
      "chapters/ch02_fundamentals.md",
      "chapters/ch04_general_assumptions.md",
      "model/01_concepts_and_terms.md",
      "domains/DM/spec.md",
      "terminology/questionnaires/questionnaires_part40.md",
      "domains/SS/spec.md",
      "terminology/questionnaires/questionnaires_part40.md",
      "terminology/supplementary/supplementary_part5.md",
      "terminology/questionnaires/questionnaires_part1.md"
    ],
    "off": {
      "answer": "## Date/Time Variable Format in SDTM\n\n### Format Standard\n\nDate and time variables in SDTM are formatted according to the **ISO 8601 extended format**, represented as character/text data types. The format pattern is:\n\n```\nYYYY-MM-DDThh:mm:ss(.n+)?(((+|-)hh:mm)|Z)?\n```\n\n**[Source: chapters/ch04_general_assumptions.md — 4.4.1 Formats for Date/Time Variables]**\n\n### Key Format Rules\n\n1. **Extended format required**: Hyphen delimiters for date components (`-`) and colon delimiters for time components (`:`) are mandatory. The ISO 8601 basic format (without delimiters) must not be used.\n\n2. **Spaces not allowed**: No spaces are permitted in any ISO 8601 representations.\n\n3. **24-hour clock**: Hours are represented as 00–23; am/pm is not allowed.\n\n4. **Precision handling**: Precision is inferred from the presence or absence of components. Missing components are represented by right truncation or a hyphen for intermediate missing components. Examples:\n   - Full date/time: `2003-12-15T13:14:17`\n   - Date only (unknown time): `2003-12-15`\n   - Year and month only: `2003-12`\n   - Year only: `2003`\n   - Unknown hour, known minutes: `2003-12-15T--:15`\n   - Unknown year, known month and day: `--12-15`\n\n   **[Source: chapters/ch04_general_assumptions.md — 4.4.2 Date/Time Precision]**\n\n5. **Intervals of uncertainty**: Represented by concatenating two date/time values separated by a solidus (`/`), e.g., `2003-12-01/2003-12-10`.\n\n6. **Completely missing**: If date and time are entirely missing, the field should be null.\n\n### Variable Naming Suffix\n\nThe SDTM fragment used for date/time character variables is **`DTC`**.\n\n**[Source: chapters/ch04_general_assumptions.md — 4.4.1 Formats for Date/Time Variables]**\n\nThis suffix is appended to the 2-character domain prefix to form the variable name. Examples from the knowledge base:\n\n| Variable | Domain | Label | Core |\n|----------|--------|-------|------|\n| **VSDTC** | VS (Vital Signs) | Date/Time of Measurements | Expected |\n| **DMDTC** | DM (Demographics) | Date/Time of Collection | Permissible |\n| **SSDTC** | SS (Subject Status) | Date/Time of Assessment | Expected |\n\n**[Source: domains/VS/spec.md — VSDTC; domains/DM/spec.md — DMDTC; domains/SS/spec.md — SSDTC]**\n\n### Controlled Terms\n\nThe controlled terms for all `--DTC` variables are specified as: **ISO 8601 datetime or interval**.\n\n### Summary\n\n- **Format**: ISO 8601 extended format (character type)\n- **Suffix**: `DTC` (e.g., `--DTC` where `--` is the 2-character domain prefix)\n- **Role**: Timing\n- **Type**: Char"
    },
    "on": {
      "answer": "Date/time variables in SDTM are formatted according to the **ISO 8601 extended format** and use the **DTC** suffix in their variable names.\n\n## Format\n\nDate/time values are represented as character/text strings using the ISO 8601 extended format:\n\n```\nYYYY-MM-DDThh:mm:ss(.n+)?(((+|-)hh:mm)|Z)?\n```\n\nWhere:\n- `YYYY` = four-digit year\n- `MM` = two-digit month (01-12)\n- `DD` = two-digit day (01-31)\n- `T` = time designator (indicates time information follows)\n- `hh` = two-digit hour (00-23, am/pm NOT allowed)\n- `mm` = two-digit minute (00-59)\n- `ss` = two-digit second (00-59)\n- `(.n+)?` = optional fractional seconds\n- `(((+|-)hh:mm)|Z)?` = optional time zone\n\n**[Source: chapters/ch04_general_assumptions.md -- 4.4.1 Formats for Date/Time Variables]**\n\n## Key Rules\n\n1. **Extended format required**: Hyphen delimiters for date components and colon delimiters for time components must be used. The ISO 8601 basic format (without delimiters) is **not** allowed. **[Source: chapters/ch04_general_assumptions.md -- 4.4.1]**\n\n2. **No spaces allowed**: Spaces are not permitted in any ISO 8601 representations. **[Source: chapters/ch04_general_assumptions.md -- 4.4.1]**\n\n3. **Precision via truncation**: Precision is inferred from the presence or absence of components. Missing components are represented by right truncation or a hyphen (for intermediate missing components). If completely missing, the field should be null. **[Source: chapters/ch04_general_assumptions.md -- 4.4.2]**\n\n4. **Character data type**: Because ISO 8601 uses text-based representation, date/time variables are character/text data types. **[Source: chapters/ch04_general_assumptions.md -- 4.4.1]**\n\n## Variable Naming Suffix\n\nThe SDTM fragment employed for date/time character variables is **DTC**. Examples include:\n- **VSDTC** (Vital Signs Date/Time of Measurements) — Role: Timing, Core: Exp **[Source: domains/VS/spec.md -- VSDTC]**\n- **DMDTC** (Demographics Date/Time of Collection) — Role: Timing, Core: Perm **[Source: domains/DM/spec.md -- DMDTC]**\n- **SSDTC** (Subject Status Date/Time of Assessment) — Role: Timing, Core: Exp **[Source: domains/SS/spec.md -- SSDTC]**\n\nAll DTC variables have:\n- **Type**: Char\n- **Controlled Terms**: ISO 8601 datetime or interval\n- **Role**: Timing"
    }
  },
  {
    "id": "q20",
    "category": "mixed",
    "question": "In the DM domain, what is the difference between the RFSTDTC/RFENDTC reference period pair and the RFXSTDTC/RFXENDTC pair, and under what circumstances will RFSTDTC be null?",
    "expected_facts": [
      "sponsor-defined",
      "screen failure"
    ],
    "expected_sources": [
      "domains/DM/assumptions.md",
      "domains/DM/spec.md"
    ],
    "sources": [
      "domains/DM/spec.md",
      "domains/DM/spec.md",
      "domains/DM/spec.md",
      "domains/DM/spec.md",
      "domains/DM/assumptions.md",
      "domains/DM/assumptions.md",
      "domains/MH/spec.md",
      "domains/CE/spec.md",
      "domains/AG/spec.md",
      "domains/CE/spec.md",
      "domains/AE/spec.md",
      "domains/CM/spec.md",
      "domains/CM/spec.md",
      "domains/DM/assumptions.md",
      "model/03_special_purpose_domains.md"
    ],
    "off": {
      "answer": "## Difference Between RFSTDTC/RFENDTC and RFXSTDTC/RFXENDTC\n\n### Conceptual Difference\n\n**RFSTDTC/RFENDTC** — Sponsor-defined reference period:\n- Usually represents the date/time of first and last study exposure, but **is open to customization** by the sponsor\n- May be defined differently in certain study designs (e.g., enrollment date prior to first dose in studies with a washout period or required screening procedures like biopsy)\n- Used to calculate study day variables (--DY)\n- **Core:** Expected (Exp)\n\n**[Source: domains/DM/assumptions.md -- item_10a]**\n\n**RFXSTDTC/RFXENDTC** — Standardized exposure reference period:\n- **Always** represents the date/time of first and last study treatment exposure\n- **Not open to customization** — provides a consistent reference period across all interventional studies\n- RFXSTDTC should equal SESTDTC for the first treatment element in SE\n- RFXENDTC may equal SEENDTC for the last treatment element in SE\n- **Core:** Expected (Exp)\n\n**[Source: domains/DM/assumptions.md -- item_10b]**\n\n### Key Distinction\n\nThe critical difference is that **RFXSTDTC/RFXENDTC guarantee a reviewer can always reference the first and last study exposure period**, while RFSTDTC/RFENDTC may be set to a different milestone (e.g., enrollment date) depending on sponsor definition. In many studies, the two pairs will have identical values, but this is not guaranteed.\n\n**[Source: domains/DM/assumptions.md -- item_10]**\n\n---\n\n## When RFSTDTC Will Be Null\n\nRFSTDTC will be **null** for subjects who are **not exposed to study treatment**, specifically:\n\n1. **Screen failures** (ARMNRS = \"SCREEN FAILURE\")\n2. **Subjects enrolled but not assigned to an arm** (ARMNRS = \"NOT ASSIGNED\")\n3. **Subjects randomized but not treated** (ARMNRS = \"NOT TREATED\")\n\nThis applies when RFSTDTC is defined as the first exposure date, which is the standard for most interventional studies.\n\n**[Source: domains/DM/assumptions.md -- item_9]**\n\n### Exception\n\nFor studies with designs where a substantial portion of subjects are not expected to be treated (e.g., non-interventional/observational studies, studies with a no-treatment arm, or studies with a delay between randomization and treatment), a **different protocol milestone** may be chosen as the starting point for study day variables, in which case RFSTDTC would not be null for those subjects.\n\n**[Source: domains/DM/assumptions.md -- item_9]**\n\n### Variable Definitions\n\n| Variable | Label | Type | Role | Core |\n|----------|-------|------|------|------|\n| RFSTDTC | Subject Reference Start Date/Time | DateTime (ISO 8601) | Record Qualifier | Exp |\n| RFENDTC | Subject Reference End Date/Time | DateTime (ISO 8601) | Record Qualifier | Exp |\n| RFXSTDTC | Date/Time of First Study Treatment | Char (ISO 8601) | Record Qualifier | Exp |\n| RFXENDTC | Date/Time of Last Study Treatment | Char (ISO 8601) | Record Qualifier | Exp |\n\n**[Source: domains/DM/spec.md -- RFSTDTC, RFENDTC, RFXSTDTC, RFXENDTC]**"
    },
    "on": {
      "answer": "Based on the retrieved context, the differences between the two reference period pairs and the circumstances under which RFSTDTC is null are as follows:\n\n### Difference Between RFSTDTC/RFENDTC and RFXSTDTC/RFXENDTC\n\nThe key difference is that **RFXSTDTC and RFXENDTC** define a **consistent, non-customizable reference period** for all interventional studies, while **RFSTDTC and RFENDTC** are **sponsor-defined** and may vary based on study design.\n\n- **RFSTDTC and RFENDTC**: This pair is sponsor-defined. It usually represents the date/time of first and last study exposure, but it can be customized. For example, in studies with a washout period before randomization or a required medical procedure during screening (e.g., a biopsy), RFSTDTC may be set to the enrollment date, which is prior to the first dose. Because study day values are calculated using RFSTDTC, this customization means study days would not be based on the date of first dose in such cases. **[Source: domains/DM/assumptions.md -- item_10.a]**\n\n- **RFXSTDTC and RFXENDTC**: This pair **always** represents the date/time of first and last study exposure and is not open to customization. This guarantees that a reviewer can always reference the first and last study exposure period. RFXSTDTC should be the same as SESTDTC for the first treatment element, and RFXENDTC may often be the same as SEENDTC for the last treatment element. **[Source: domains/DM/assumptions.md -- item_10.b]**\n\n### Circumstances When RFSTDTC Will Be Null\n\nRFSTDTC will be null for subjects who are **ineligible for treatment** or who were **not treated**. This includes:\n\n- Subjects who are ineligible for treatment (e.g., screen failures with `ARMNRS = \"SCREEN FAILURE\"`).\n- Subjects who were enrolled but not assigned to an arm (e.g., `ARMNRS = \"NOT ASSIGNED\"`).\n- Subjects who were randomized but not treated (e.g., `ARMNRS = \"NOT TREATED\"`).\n\n**[Source: domains/DM/assumptions.md -- item_9]**\n\nAdditionally, the CDISC Notes for RFSTDTC state that it is \"Usually equivalent to date/time when subject was first exposed to study treatment\" and refers to assumption 9 for additional detail on when it may be null. **[Source: domains/DM/spec.md -- RFSTDTC]**"
    }
  },
  {
    "id": "q67",
    "category": "cross_domain",
    "question": "Many SDTM variables use the No Yes Response codelist C66742. How many variables reference it and give some examples of AE seriousness variables that use it.",
    "expected_facts": [
      "C66742",
      "AESER",
      "AESDTH"
    ],
    "expected_sources": [
      "VARIABLE_INDEX.md"
    ],
    "sources": [
      "VARIABLE_INDEX.md",
      "domains/AE/spec.md",
      "terminology/core/general_part4.md",
      "domains/AE/examples.md",
      "chapters/ch04_general_assumptions.md",
      "domains/AE/assumptions.md",
      "model/01_concepts_and_terms.md",
      "domains/AE/assumptions.md",
      "chapters/ch01_introduction.md",
      "domains/CE/spec.md",
      "chapters/ch02_fundamentals.md",
      "domains/SV/spec.md",
      "chapters/ch04_general_assumptions.md",
      "terminology/supplementary/supplementary_part5.md",
      "domains/SU/assumptions.md"
    ],
    "off": {
      "answer": "Based on the provided context, the **No Yes Response** codelist (C66742) is referenced by multiple variables across different domains. The exact total number of variables is not provided in the retrieved context, but it is used extensively.\n\n### Examples of AE Seriousness Variables Using C66742\n\nIn the Adverse Events (AE) domain, the following seriousness variables use the **No Yes Response** codelist (C66742) **[Source: domains/AE/spec.md]**:\n\n- **AESER** (Serious Event)\n- **AESCAN** (Involves Cancer)\n- **AESCONG** (Congenital Anomaly or Birth Defect)\n- **AESDISAB** (Persistent or Significant Disability/Incapacity)\n- **AESDTH** (Resulted in Death)\n- **AESHOSP** (Required or Prolonged Hospitalization)\n- **AESLIFE** (Life Threatening)\n- **AESMIE** (Other Medically Important Serious Event)\n\n### Codelist Values (C66742)\n\nThe **No Yes Response** codelist (C66742) is non-extensible and permits the following values **[Source: terminology/core/general_part4.md]**:\n\n| Code | Submission Value | Meaning |\n|------|------------------|---------|\n| C49487 | N | No |\n| C48660 | NA | Not Applicable |\n| C17998 | U | Unknown |\n| C49488 | Y | Yes |\n\n### Usage Note\n\nPer the general assumptions, variables using this codelist should normally be populated for both \"Y\" and \"N\" responses. However, for seriousness variables (e.g., AESDTH, AESHOSP), if the overall seriousness question (AESER) is answered \"N\", these category variables may be left null **[Source: domains/AE/assumptions.md]**."
    },
    "on": {
      "answer": "Based on the retrieved context, the **No Yes Response** codelist (C66742) is referenced by multiple variables across several domains. The context explicitly lists the following domains and variables that use it:\n\n- **AE domain**: AEPRESP, AESER, AESCAN, AESCONG, AESDISAB, AESDTH, AESHOSP, AESLIFE, AESMIE (13 total variables listed, though only these 9 are named in the excerpt) **[Source: domains/AE/spec.md]**\n- **CE domain**: CEPRESP, CEOCCUR **[Source: domains/CE/spec.md]**\n- **SV domain**: SVPRESP, SVOCCUR, SVEPCHGI **[Source: domains/SV/spec.md]**\n\nFrom the AE domain, the **AE seriousness variables** that use C66742 include:\n- **AESER** — Overall seriousness indicator\n- **AESCONG** — Congenital anomaly/birth defect\n- **AESDISAB** — Persistent or significant disability/incapacity\n- **AESDTH** — Fatal\n- **AESHOSP** — Inpatient hospitalization or prolongation\n- **AESLIFE** — Life-threatening\n- **AESMIE** — Other medically important serious event\n- **AESCAN** — Involves cancer\n\n**[Source: domains/AE/spec.md, domains/AE/assumptions.md item_7]**\n\nThe codelist itself (C66742) contains four permissible values: N (C49487), NA (C48660), U (C17998), and Y (C49488) **[Source: terminology/core/general_part4.md]**.\n\n**Note:** The context does not provide a complete count of all variables across all domains that reference C66742. The total number of variables using this codelist cannot be determined from the available information."
    }
  },
  {
    "id": "q81",
    "category": "concept",
    "question": "What rules govern the two-character DOMAIN code in SDTM? What characters are allowed for the first and second characters?",
    "expected_facts": [
      "2-character",
      "A-Z",
      "0-9"
    ],
    "expected_sources": [
      "chapters/ch04_general_assumptions.md"
    ],
    "sources": [
      "chapters/ch04_general_assumptions.md",
      "domains/TM/spec.md",
      "chapters/ch04_general_assumptions.md",
      "domains/DA/spec.md",
      "chapters/ch04_general_assumptions.md",
      "domains/DD/spec.md",
      "domains/CO/assumptions.md",
      "domains/EX/spec.md",
      "chapters/ch02_fundamentals.md",
      "domains/FT/spec.md",
      "domains/EG/assumptions.md",
      "domains/BE/spec.md",
      "chapters/ch04_general_assumptions.md",
      "domains/CM/spec.md",
      "domains/CO/examples.md"
    ],
    "off": {
      "answer": "Based on the retrieved context, the rules governing the two-character DOMAIN code in SDTM are as follows:\n\nThe two-character domain code is used as a prefix for most variable names in a domain dataset to minimize the risk of difficulty when merging or joining domains for reporting purposes. **[Source: chapters/ch04_general_assumptions.md -- 4.2.2]**\n\n**Allowed Characters:**\n- **First character:** Limited to A-Z (uppercase letters only)\n- **Second character:** Limited to A-Z (uppercase letters) or 0-9 (digits)\n\n**Disallowed Characters:** No other characters are allowed. This restriction is for compatibility with SAS v5 transport files and with file naming requirements as part of the Electronic Common Technical Document (eCTD). **[Source: chapters/ch04_general_assumptions.md -- 4.2.2]**\n\n**Exceptions to the prefix rule:** The following variables are exceptions and are **not** prefixed with the domain identifier:\n- Required Identifiers (STUDYID, DOMAIN, USUBJID)\n- Commonly used grouping and merge keys (e.g., VISIT, VISITNUM, VISITDY)\n- All Demographics (DM) domain variables other than DMDTC and DMDY\n- All variables in RELREC and SUPPQUAL, and some variables in the Comments and Trial Design datasets **[Source: chapters/ch04_general_assumptions.md -- 4.2.2]**"
    },
    "on": {
      "answer": "Based on the retrieved context, the rules governing the two-character DOMAIN code in SDTM are as follows:\n\n1.  **Purpose and Usage**: The DOMAIN variable is a two-character abbreviation that uniquely identifies a domain dataset. It is used as the dataset name, as the value of the DOMAIN variable in that dataset, as a prefix for most variable names in that dataset, and as a value in the RDOMAIN variable in relationship tables. **[Source: chapters/ch02_fundamentals.md]**\n\n2.  **Variable Definition**: In domain specification tables, DOMAIN is defined with the following attributes:\n    - **Label:** Domain Abbreviation\n    - **Type:** Char\n    - **Role:** Identifier\n    - **Core:** Req\n    - **CDISC Notes:** Two-character abbreviation for the domain. **[Source: domains/TM/spec.md, domains/DA/spec.md, domains/DD/spec.md, domains/EX/spec.md, domains/FT/spec.md, domains/BE/spec.md, domains/CM/spec.md]**\n\n3.  **Allowed Characters**: The two-character domain code is limited to:\n    - **First character:** A-Z (letters only)\n    - **Second character:** A-Z, 0-9 (letters or digits)\n    - No other characters are allowed. **[Source: chapters/ch04_general_assumptions.md §4.2.2]**\n\n4.  **Rationale**: This restriction is for compatibility with SAS v5 transport files and with file naming requirements as part of the Electronic Common Technical Document (eCTD). **[Source: chapters/ch04_general_assumptions.md §4.2.2]**\n\n5.  **Exceptions to Prefixing**: While most variable names in a domain are prefixed with the domain identifier, some variables are exceptions and are not prefixed. These include:\n    - Required Identifiers (STUDYID, DOMAIN, USUBJID)\n    - Commonly used grouping and merge keys (e.g., VISIT, VISITNUM, VISITDY)\n    - All Demographics (DM) domain variables other than DMDTC and DMDY\n    - All variables in RELREC and SUPPQUAL, and some variables in the Comments and Trial Design datasets. **[Source: chapters/ch04_general_assumptions.md §4.2.2]**"
    }
  }
]