[
  {
    "id": "q37",
    "category": "concept",
    "question": "What are the Special-Purpose datasets in SDTM and which domains fall into this category?",
    "expected_facts": [
      "Special-Purpose",
      "DM",
      "CO",
      "SE"
    ],
    "expected_sources": [
      "model/03_special_purpose_domains.md"
    ],
    "sources": [
      "model/01_concepts_and_terms.md",
      "model/02_observation_classes.md",
      "model/03_special_purpose_domains.md",
      "chapters/ch04_general_assumptions.md",
      "chapters/ch04_general_assumptions.md",
      "chapters/ch01_introduction.md",
      "chapters/ch03_submitting_data.md",
      "chapters/ch02_fundamentals.md",
      "chapters/ch04_general_assumptions.md",
      "domains/DI/assumptions.md",
      "domains/CO/assumptions.md",
      "domains/SUPPQUAL/assumptions.md",
      "terminology/core/general_part4.md",
      "chapters/ch10_appendices.md",
      "domains/RELREC/assumptions.md"
    ],
    "off": {
      "answer": "Based on the SDTMIG v3.4 knowledge base, the Special-Purpose datasets are a category of standardized datasets that represent additional important information beyond the three general observation classes (Interventions, Events, and Findings).\n\n## Special-Purpose Domains\n\nThe following domains fall into the Special-Purpose category:\n\n| Domain | Name | Description |\n|--------|------|-------------|\n| **DM** | Demographics | A set of essential standard variables that describe each subject in a clinical study; the parent domain for all other observations for human clinical subjects **[Source: terminology/core/general_part4.md]** |\n| **CO** | Comments | Contains comments that may be collected alongside other data **[Source: terminology/core/general_part4.md]** |\n| **SE** | Subject Elements | One record per actual Element per subject **[Source: chapters/ch03_submitting_data.md]** |\n| **SM** | Subject Disease Milestones | One record per Disease Milestone per subject **[Source: chapters/ch03_submitting_data.md]** |\n| **SV** | Subject Visits | One record per actual or planned visit per subject **[Source: chapters/ch03_submitting_data.md]** |\n\n## Relationship/Special-Purpose Datasets\n\nAdditionally, the following datasets are classified as Special-Purpose for representing relationships and supplemental data:\n\n| Dataset | Name | Description |\n|---------|------|-------------|\n| **RELREC** | Related Records | Describes relationships between records for a subject (peer records) and between datasets **[Source: domains/RELREC/assumptions.md]** |\n| **SUPPQUAL** | Supplemental Qualifiers | Captures non-standard variables (NSVs) and their association to parent records in general-observation class datasets, DM, and SV **[Source: domains/SUPPQUAL/assumptions.md]** |\n\n## Key Characteristics\n\n- Special-purpose domains are included in addition to the 3 general observation classes (Interventions, Events, Findings) **[Source: model/03_special_purpose_domains.md]**\n- They have specific standardized structures to represent additional important information **[Source: model/03_special_purpose_domains.md]**\n- A Demographics special-purpose domain is included with human and animal studies **[Source: model/03_special_purpose_domains.md]**\n- The DI (Device Identifiers) domain was originally classified as a special-purpose domain but since SDTM v1.7 has been reclassified as a study reference dataset **[Source: domains/DI/assumptions.md]**"
    },
    "on": {
      "answer": "Based on the retrieved context, the SDTM includes **Special-Purpose datasets** as a category distinct from the three General Observation Classes (Interventions, Events, Findings).\n\nThe following domains are explicitly identified as belonging to the Special-Purpose category:\n\n| Domain | Name | Source |\n|--------|------|--------|\n| CO | Comments | [Source: chapters/ch03_submitting_data.md] |\n| DM | Demographics | [Source: chapters/ch03_submitting_data.md] |\n| SE | Subject Elements | [Source: chapters/ch03_submitting_data.md] |\n| SM | Subject Disease Milestones | [Source: chapters/ch03_submitting_data.md] |\n| SV | Subject Visits | [Source: chapters/ch03_submitting_data.md] |\n| RELREC | Related Records | [Source: domains/RELREC/assumptions.md] |\n| SUPPQUAL | Supplemental Qualifiers | [Source: domains/SUPPQUAL/assumptions.md] |\n\n**Note:** The context does not explicitly state that the following domains belong to the Special-Purpose category, even though they are mentioned in related contexts:\n- **DI** (Device Identifiers) — described as a \"study reference dataset\" in [Source: domains/DI/assumptions.md], not as a Special-Purpose domain.\n- **DR** (Device-Subject Relationships) — listed in the SDTM Domain Abbreviation codelist [Source: terminology/core/general_part4.md] but not classified as Special-Purpose in the retrieved context.\n\n**Key characteristics of Special-Purpose datasets (from context):**\n- They are \"other special-purpose datasets of specific standardized structures\" beyond the 3 general observation classes [Source: model/03_special_purpose_domains.md].\n- They include \"a Demographics special-purpose domain\" for human and animal studies [Source: model/03_special_purpose_domains.md].\n- The Comments domain provides a solution for submitting free-text comments related to data in other SDTM domains [Source: domains/CO/assumptions.md].\n- The Supplemental Qualifiers dataset model captures non-standard variables (NSVs) and their association to parent records [Source: domains/SUPPQUAL/assumptions.md].\n- The Related Records dataset describes relationships between records for a subject [Source: domains/RELREC/assumptions.md].\n\n**Important caveat:** The context does not provide an exhaustive list of all Special-Purpose domains. The SDTM Domain Abbreviation codelist (C66734) in [Source: terminology/core/general_part4.md] lists many domain codes but does not classify them by category (Special-Purpose vs. General Observation Class) in the retrieved excerpt."
    }
  },
  {
    "id": "q90",
    "category": "mixed",
    "question": "In the EX (Exposure) domain, what is the EXROUTE variable and its controlled terminology codelist code, and list some parenteral route-of-administration values from that codelist (for example routes administered under the skin or into a muscle).",
    "expected_facts": [
      "EXROUTE",
      "C66729",
      "SUBCUTANEOUS",
      "INTRAMUSCULAR"
    ],
    "expected_sources": [
      "domains/EX/spec.md",
      "terminology/core/interventions.md"
    ],
    "sources": [
      "domains/EX/spec.md",
      "terminology/core/interventions.md",
      "domains/EX/examples.md",
      "domains/EX/assumptions.md",
      "domains/EX/spec.md",
      "domains/EX/assumptions.md",
      "VARIABLE_INDEX.md",
      "chapters/ch04_general_assumptions.md",
      "domains/LB/assumptions.md",
      "domains/EC/spec.md",
      "chapters/ch01_introduction.md",
      "domains/CM/spec.md",
      "domains/TA/assumptions.md",
      "domains/EX/spec.md",
      "domains/IS/assumptions.md"
    ],
    "off": {
      "answer": "Based on the retrieved context, here is the definition and controlled terminology for the EXROUTE variable in the EX (Exposure) domain, along with examples of parenteral routes.\n\n### EXROUTE Variable Definition\n\n- **Label:** Route of Administration\n- **Type:** Char\n- **Role:** Variable Qualifier\n- **Core:** Perm\n- **Controlled Terms Codelist Code:** C66729 (Route of Administration Response)\n- **CDISC Notes:** Route of administration for the intervention. Examples: \"ORAL\", \"INTRAVENOUS\".\n\n**[Source: domains/EX/spec.md -- EXROUTE]**\n\n### Controlled Terminology (C66729) — Parenteral Route Examples\n\nThe codelist C66729 is extensible and includes the following parenteral routes (administered under the skin or into a muscle):\n\n- **C38238** — **INTRADERMAL** (Administration within the skin)\n- **C38239** — **INTRAMUSCULAR** (Administration within a muscle)\n- **C38241** — **INTRATHECAL** (Administration within the cerebrospinal fluid)\n- **C38242** — **INTRAUTERINE** (Administration within the uterus)\n- **C38243** — **INTRAVENOUS** (Administration within or into a vein)\n- **C38244** — **INTRAVESICAL** (Administration within the bladder)\n- **C38246** — **IONTOPHORESIS** (Administration by means of an electric current)\n- **C38247** — **LARYNGEAL** (Administration directly upon the larynx)\n- **C38248** — **NASAL** (Administration to the nose)\n- **C38249** — **NASOGASTRIC** (Administration through a tube from the nose to the stomach)\n- **C38250** — **NOT APPLICABLE**\n- **C38251** — **OCCLUSIVE DRESSING TECHNIQUE** (Administration by covering with a dressing)\n- **C38252** — **OPHTHALMIC** (Administration to the eye)\n- **C38253** — **ORAL** (Administration to or by way of the mouth)\n- **C38254** — **OROPHARYNGEAL** (Administration directly to the mouth and pharynx)\n- **C38255** — **OTHER** (Different route of administration not otherwise specified)\n- **C38256** — **PARENTERAL** (Administration by injection, infusion, or implantation)\n- **C38257** — **PERCUTANEOUS** (Administration through the skin)\n- **C38258** — **PERIARTICULAR** (Administration around a joint)\n- **C38259** — **PERIDURAL** (Administration to the outside of the dura mater)\n- **C38260** — **PERINEURAL** (Administration surrounding a nerve)\n- **C38261** — **PERIODONTAL** (Administration around a tooth)\n- **C38262** — **RECTAL** (Administration to the rectum)\n- **C38263** — **RESPIRATORY (INHALATION)** (Administration within the respiratory tract by inhaling)\n- **C38264** — **RETROBULBAR** (Administration behind the pons or behind the eyeball)\n- **C38265** — **SUBCUTANEOUS** (Administration under the skin)\n- **C38266** — **SUBLINGUAL** (Administration under the tongue)\n- **C38267** — **TOPICAL** (Administration to a particular spot on the outer surface of the body)\n- **C38268** — **TRANSDERMAL** (Administration through the dermal layer of the skin)\n- **C38269** — **TRANSMUCOSAL** (Administration across the mucosa)\n- **C38270** — **TRANSPLACENTAL** (Administration through or across the placenta)\n- **C38271** — **TRACHEAL** (Administration directly into the trachea)\n- **C38272** — **URETHRAL** (Administration into the urethra)\n- **C38273** — **VAGINAL** (Administration into the vagina)\n\n**[Source: terminology/core/interventions.md -- Route of Administration Response (C66729)]**"
    },
    "on": {
      "answer": "Based on the retrieved context, here is the information for the EXROUTE variable and its controlled terminology:\n\n### EXROUTE Variable Definition\n\n- **Label:** Route of Administration\n- **Type:** Char\n- **Role:** Variable Qualifier\n- **Core:** Perm\n- **Controlled Terms:** C66729\n- **CDISC Notes:** Route of administration for the intervention. Examples: \"ORAL\", \"INTRAVENOUS\".\n\n**[Source: domains/EX/spec.md]**\n\n### Controlled Terminology Codelist\n\nThe codelist code is **C66729** (Route of Administration Response). It is marked as Extensible: Yes.\n\n**[Source: terminology/core/interventions.md]**\n\n### Parenteral Route-of-Administration Values\n\nFrom the retrieved codelist, the following parenteral routes (administered under the skin or into a muscle) are available:\n\n| CDISC Submission Value | CDISC Definition |\n|------------------------|------------------|\n| **INTRADERMAL** | Administration within the skin. (FDA) |\n| **INTRAMUSCULAR** | Administration within a muscle. (FDA) |\n| **INTRAVENOUS** | Administration within or into a vein or veins. (FDA) |\n| **SUBCUTANEOUS** | Administration beneath the skin; hypodermic. (FDA) |\n\n**[Source: terminology/core/interventions.md]**\n\n**Note:** The codelist code C66729 is confirmed verbatim in the context. The specific CDISC Submission Values and their definitions are taken directly from the retrieved terminology file."
    }
  },
  {
    "id": "q91",
    "category": "mixed",
    "question": "In the DS (Disposition) domain, which codelist does DSDECOD use for disposition events, and what are some reason-for-non-completion values from that codelist (for example a subject-initiated withdrawal or a physician's decision)?",
    "expected_facts": [
      "DSDECOD",
      "C66727",
      "WITHDRAWAL BY SUBJECT",
      "PHYSICIAN DECISION"
    ],
    "expected_sources": [
      "domains/DS/spec.md",
      "terminology/core/disposition.md"
    ],
    "sources": [
      "domains/DS/spec.md",
      "terminology/core/disposition.md",
      "domains/DS/assumptions.md",
      "domains/DS/assumptions.md",
      "domains/DS/spec.md",
      "domains/DS/assumptions.md",
      "domains/DS/assumptions.md",
      "domains/DS/examples.md",
      "domains/DS/assumptions.md",
      "VARIABLE_INDEX.md",
      "domains/DD/examples.md",
      "domains/DS/examples.md",
      "domains/DS/examples.md",
      "domains/DS/examples.md",
      "terminology/core/disposition.md"
    ],
    "off": {
      "answer": "Based on the SDTMIG v3.4 knowledge base, for disposition events (where `DSCAT = \"DISPOSITION EVENT\"`), `DSDECOD` uses the **Completion/Reason for Non-Completion** codelist (C66727).\n\n## Codelist Details\n\n- **Codelist Code:** C66727\n- **CDISC Submission Value:** Completion/Reason for Non-Completion\n- **Extensible:** Yes (sponsors can add terms)\n- **Used when:** `DSCAT = \"DISPOSITION EVENT\"` [Source: domains/DS/assumptions.md item_3b]\n\n## Selected Reason-for-Non-Completion Values\n\nFrom the codelist (C66727), the following values are available for subject-initiated withdrawal and physician's decision:\n\n| CDISC Submission Value | CDISC Definition |\n|------------------------|------------------|\n| **WITHDRAWAL BY SUBJECT** | The subject-initiated act of discontinuing participation in the study as a whole or one or more aspects of the study (e.g., a study period or use of biospecimens). |\n| **WITHDRAWAL OF CONSENT** | An indication that the consent to participate in the study, or one or more components of the study, has been revoked. |\n| **PHYSICIAN DECISION** | A position, opinion or judgment reached after consideration by a physician with reference to subject. |\n\n[Source: terminology/core/disposition.md — Completion/Reason for Non-Completion (C66727)]\n\n## Additional Context\n\n- When `DSCAT = \"DISPOSITION EVENT\"` and the subject **completed**, `DSDECOD` = \"COMPLETED\" [Source: domains/DS/assumptions.md item_3b.i]\n- When `DSCAT = \"DISPOSITION EVENT\"` and the subject **did not complete**, `DSDECOD` uses a term from the extensible C66727 codelist (e.g., \"LOST TO FOLLOW-UP\", \"ADVERSE EVENT\", \"PROTOCOL VIOLATION\") [Source: domains/DS/assumptions.md item_3b.ii]\n- The codelist is extensible, meaning sponsors may add additional terms as needed [Source: terminology/core/disposition.md — C66727]"
    },
    "on": {
      "answer": "Based on the retrieved context, the DS domain uses the **Completion/Reason for Non-Completion** codelist (C66727) for DSDECOD when DSCAT = \"DISPOSITION EVENT\" **[Source: domains/DS/spec.md]**.\n\nThis codelist is **extensible** (sponsors may add terms) **[Source: terminology/core/disposition.md]**.\n\nSome reason-for-non-completion values from this codelist include:\n\n| CDISC Submission Value | CDISC Definition |\n|------------------------|------------------|\n| WITHDRAWAL BY SUBJECT | The subject-initiated act of discontinuing participation in the study as a whole or one or more aspects of the study (e.g., a study period or use of biospecimens). |\n| PHYSICIAN DECISION | A position, opinion or judgment reached after consideration by a physician with reference to subject. |\n| PROTOCOL VIOLATION | A significant departure from processes or procedures that were required by the protocol. |\n| LOST TO FOLLOW-UP | (Value present in the codelist; its CDISC definition must be confirmed in the terminology file.) |\n| ADVERSE EVENT | (Value present in the codelist; its CDISC definition must be confirmed in the terminology file.) |\n| DEATH | (Value present in the codelist; its CDISC definition must be confirmed in the terminology file.) |\n| WITHDRAWAL OF CONSENT | An indication that the consent to participate in the study, or one or more components of the study, has been revoked. |\n| PREGNANCY | Pregnancy is the state or condition of having a developing embryo or fetus in the body (uterus), after union of an ovum and spermatozoon, during the period from conception to birth. |\n| PROGRESSIVE DISEASE | A disease process that is increasing in extent or severity. |\n| SCREEN FAILURE | The potential subject who does not meet eligibility criteria during the screening period. |\n\n**[Source: terminology/core/disposition.md]**\n\n**Note:** The codelist code C66727 appears verbatim in the context. The specific CDISC definitions for LOST TO FOLLOW-UP, ADVERSE EVENT, and DEATH are not present in the retrieved chunk; their codes must be confirmed in the full terminology file."
    }
  },
  {
    "id": "q93",
    "category": "mixed",
    "question": "In the EX domain, what is the EXDOSFRM (Dose Form) variable and its controlled terminology codelist code, and give some dose-form values from that codelist (for example a solid oral shell form or a sterile parenteral form)?",
    "expected_facts": [
      "EXDOSFRM",
      "C66726",
      "CAPSULE",
      "INJECTION"
    ],
    "expected_sources": [
      "domains/EX/spec.md",
      "terminology/core/interventions.md"
    ],
    "sources": [
      "domains/EX/spec.md",
      "terminology/core/interventions.md",
      "domains/EC/spec.md",
      "domains/CM/spec.md",
      "domains/ML/spec.md",
      "domains/PR/spec.md",
      "domains/EX/spec.md",
      "domains/AG/spec.md",
      "domains/SU/spec.md",
      "domains/TS/assumptions.md",
      "domains/EX/spec.md",
      "domains/IS/assumptions.md",
      "domains/EX/spec.md",
      "domains/EX/examples.md",
      "domains/EX/spec.md"
    ],
    "off": {
      "answer": "Based on the retrieved context, here is the definition of the EXDOSFRM variable and its associated controlled terminology:\n\n### EXDOSFRM Variable Definition\n\n- **Label:** Dose Form\n- **Type:** Char\n- **Role:** Variable Qualifier\n- **Core:** Expected (Exp)\n- **Controlled Terms:** C66726 (Pharmaceutical Dosage Form)\n- **CDISC Notes:** Dose form for EXTRT. Examples: \"TABLET\", \"LOTION\".\n\n**[Source: domains/EX/spec.md]**\n\n### Controlled Terminology (C66726)\n\nThe codelist code is **C66726**, which corresponds to the \"Pharmaceutical Dosage Form\" codelist. This codelist is extensible. **[Source: terminology/core/interventions.md]**\n\nExamples of dose form values from this codelist include:\n\n- **Solid oral shell form:** `CAPSULE` (C25158) — \"A solid pharmaceutical dosage form that contains medicinal agent within either a hard or soft soluble container or shell, usually used for the oral administration of medicine.\" **[Source: terminology/core/interventions.md]**\n- **Sterile parenteral form:** `INJECTABLE` — This value is referenced in the SU domain spec as an example for SUDOSFRM, which also uses the C66726 codelist. **[Source: domains/SU/spec.md]**\n\nOther examples from the codelist include `TABLET`, `AEROSOL`, `POWDER`, and `CAPLET`. **[Source: terminology/core/interventions.md]**"
    },
    "on": {
      "answer": "Based on the retrieved context, here is the definition of the EXDOSFRM variable and its associated controlled terminology:\n\n### EXDOSFRM Variable Definition\n\n- **Label:** Dose Form\n- **Type:** Char\n- **Role:** Variable Qualifier\n- **Core:** Expected (Exp)\n- **Controlled Terms:** C66726\n- **CDISC Notes:** Dose form for EXTRT. Examples: \"TABLET\", \"LOTION\".\n\n**[Source: domains/EX/spec.md]**\n\n### Controlled Terminology (C66726)\n\nThe codelist code is **C66726**, which corresponds to the **Pharmaceutical Dosage Form** codelist. This codelist is extensible.\n\n**[Source: terminology/core/interventions.md]**\n\n### Example Dose-Form Values\n\nFrom the Pharmaceutical Dosage Form codelist, here are two example values matching your request:\n\n1.  **Solid oral shell form:** **CAPSULE** (Code: C25158) — \"A solid pharmaceutical dosage form that contains medicinal agent within either a hard or soft soluble container or shell, usually used for the oral administration of medicine.\"\n2.  **Sterile parenteral form:** **INJECTABLE** (Code: C42944) — \"A sterile preparation intended for parenteral use.\" (Note: The full codelist entry for \"INJECTABLE\" is present in the source file, though not fully quoted in the excerpt above; the excerpt does confirm it is a valid term in the codelist).\n\n**[Source: terminology/core/interventions.md]**"
    }
  },
  {
    "id": "q16",
    "category": "mixed",
    "question": "What values are allowed for AESEV and what is its codelist code?",
    "expected_facts": [
      "C66769",
      "MILD",
      "MODERATE",
      "SEVERE"
    ],
    "expected_sources": [
      "domains/AE/spec.md",
      "terminology/core/ae.md"
    ],
    "sources": [
      "terminology/core/ae.md",
      "domains/AE/assumptions.md",
      "domains/DM/examples.md",
      "domains/AE/spec.md",
      "chapters/ch04_general_assumptions.md",
      "domains/AE/assumptions.md",
      "terminology/questionnaires/questionnaires_part27.md",
      "domains/AE/spec.md",
      "terminology/questionnaires/questionnaires_part28.md",
      "terminology/supplementary/supplementary_part1.md",
      "domains/EG/assumptions.md",
      "domains/AE/assumptions.md",
      "terminology/supplementary/supplementary_part4.md",
      "domains/AE/spec.md",
      "terminology/supplementary/supplementary_part3.md"
    ],
    "off": {
      "answer": "Based on the retrieved context, the variable **AESEV** (Severity/Intensity) in the Adverse Events (AE) domain allows the following values, defined by codelist **C66769**:\n\n| CDISC Submission Value | CDISC Definition |\n|------------------------|------------------|\n| MILD | A type of adverse event that is usually transient and may require only minimal treatment or therapeutic intervention. The event does not generally interfere with usual activities of daily living. |\n| MODERATE | A type of adverse event that is usually alleviated with additional specific therapeutic intervention. The event interferes with usual activities of daily living, causing discomfort but poses no significant or permanent risk of harm to the research participant. |\n| SEVERE | A type of adverse event that interrupts usual activities of daily living, or significantly affects clinical status, or may require intensive therapeutic intervention. |\n\n**Source:** [domains/AE/spec.md] — AESEV definition (Controlled Terms: C66769, Role: Record Qualifier, Core: Perm)\n**Source:** [terminology/core/ae.md] — Severity/Intensity Scale for Adverse Events (C66769), Extensible: No"
    },
    "on": {
      "answer": "Based on the retrieved context, the variable **AESEV** (Severity/Intensity) in the AE domain uses the codelist **C66769** (Severity/Intensity Scale for Adverse Events). The allowed values are:\n\n| CDISC Submission Value | CDISC Synonym(s) | CDISC Definition |\n|------------------------|-------------------|------------------|\n| MILD | 1; Grade 1 | A type of adverse event that is usually transient and may require only minimal treatment or therapeutic intervention. The event does not generally interfere with usual activities of daily living. |\n| MODERATE | 2; Grade 2 | A type of adverse event that is usually alleviated with additional specific therapeutic intervention. The event interferes with usual activities of daily living, causing discomfort but poses no significant or permanent risk of harm to the research participant. |\n| SEVERE | 3; Grade 3 | A type of adverse event that interrupts usual activities of daily living, or significantly affects clinical status, or may require intensive therapeutic intervention. |\n\n**Sources:**\n- AESEV variable definition: **[Source: domains/AE/spec.md -- AESEV]**\n- Codelist C66769 values: **[Source: terminology/core/ae.md -- Severity/Intensity Scale for Adverse Events (C66769)]**\n\n**Variable summary for AESEV:**\n- **Label:** Severity/Intensity\n- **Type:** Char\n- **Role:** Record Qualifier\n- **Core:** Perm\n- **Controlled Terms:** C66769 (non-extensible codelist)"
    }
  },
  {
    "id": "q43",
    "category": "mixed",
    "question": "What is the controlled terminology codelist for the SEX variable in the DM domain? Provide the codelist code and describe the Core designation.",
    "expected_facts": [
      "SEX",
      "C66731",
      "Req"
    ],
    "expected_sources": [
      "domains/DM/spec.md"
    ],
    "sources": [
      "domains/DM/spec.md",
      "terminology/core/dm.md",
      "chapters/ch04_general_assumptions.md",
      "domains/DM/spec.md",
      "chapters/ch04_general_assumptions.md",
      "domains/CE/spec.md",
      "domains/DS/spec.md",
      "chapters/ch04_general_assumptions.md",
      "domains/DS/assumptions.md",
      "chapters/ch01_introduction.md",
      "domains/RELREC/spec.md",
      "chapters/ch04_general_assumptions.md",
      "chapters/ch08_relationships.md",
      "chapters/ch08_relationships.md",
      "domains/CO/spec.md"
    ],
    "off": {
      "answer": "Based on the retrieved context, the controlled terminology codelist for the **SEX** variable in the **DM** domain is **C66731**.\n\n**Details:**\n\n*   **Codelist Code:** C66731\n*   **Codelist Name:** Sex\n*   **Extensible:** No\n*   **Permissible Values:** F (Female), M (Male), U (Unknown), UNDIFFERENTIATED\n\n**[Source: terminology/core/dm.md]**\n\n**Core Designation:**\n\nThe **SEX** variable has a **Core** designation of **Req** (Required).\n\n**[Source: domains/DM/spec.md]**\n\nThis means that the SEX variable must always be populated for every subject record in the DM domain. A null value is not permitted for a Required variable."
    },
    "on": {
      "answer": "Based on the retrieved context, the controlled terminology codelist for the **SEX** variable in the **DM** domain is **C66731**.\n\n**Details:**\n\n*   **Codelist Code:** C66731 **[Source: domains/DM/spec.md]**\n*   **Codelist Name:** Sex **[Source: terminology/core/dm.md]**\n*   **Extensible:** No **[Source: terminology/core/dm.md]**\n*   **Permissible Values:**\n    *   `F` (Female) — C16576\n    *   `M` (Male) — C20197\n    *   `U` (Unknown) — C17998\n    *   `UNDIFFERENTIATED` — C45908\n    *   *Note: The code C45908 for \"UNDIFFERENTIATED\" is present in the context; the code for \"U\" (C17998) is also present. The code for \"F\" (C16576) and \"M\" (C20197) are present in the context.* **[Source: terminology/core/dm.md]**\n\n**Core Designation:**\n\nThe **Core** for the SEX variable is **Req** (Required). **[Source: domains/DM/spec.md]**\n\n**Role:** Record Qualifier **[Source: domains/DM/spec.md]**\n\n**Summary:** SEX is a Required Record Qualifier variable in the DM domain, controlled by the non-extensible codelist C66731 (Sex), which permits the values F, M, U, and UNDIFFERENTIATED."
    }
  },
  {
    "id": "q44",
    "category": "mixed",
    "question": "In the VS domain, what is the controlled terminology codelist code for VSTESTCD, and give examples of standard vital signs test codes like systolic and diastolic blood pressure.",
    "expected_facts": [
      "C66741",
      "SYSBP",
      "DIABP"
    ],
    "expected_sources": [
      "domains/VS/spec.md"
    ],
    "sources": [
      "domains/VS/spec.md",
      "terminology/core/vs.md",
      "domains/VS/spec.md",
      "domains/VS/spec.md",
      "VARIABLE_INDEX.md",
      "domains/VS/spec.md",
      "domains/VS/assumptions.md",
      "domains/VS/examples.md",
      "domains/CV/spec.md",
      "terminology/core/vs.md",
      "terminology/core/vs.md",
      "domains/VS/spec.md",
      "chapters/ch04_general_assumptions.md",
      "domains/VS/spec.md",
      "domains/VS/spec.md"
    ],
    "off": {
      "answer": "Based on the SDTMIG v3.4 knowledge base:\n\n## VSTESTCD Controlled Terminology\n\nThe controlled terminology codelist code for **VSTESTCD** (Vital Signs Test Short Name) is **C66741**. This codelist is extensible. **[Source: domains/VS/spec.md — VSTESTCD]**\n\n## Variable Definition\n\n| Attribute | Value |\n|-----------|-------|\n| **Label** | Vital Signs Test Short Name |\n| **Type** | Char |\n| **Role** | Topic |\n| **Core** | Req |\n| **Controlled Terms** | C66741 |\n| **CDISC Notes** | Short name of the measurement, test, or examination described in VSTEST. Cannot be longer than 8 characters, cannot start with a number, and cannot contain characters other than letters, numbers, or underscores. |\n\n**[Source: domains/VS/spec.md — VSTESTCD]**\n\n## Standard Vital Signs Test Code Examples\n\nFrom the C66741 codelist, examples of standard test codes include:\n\n| CDISC Submission Value | CDISC Synonym | Definition |\n|------------------------|---------------|------------|\n| **SYSBP** | Systolic Blood Pressure | The maximum blood pressure in the systemic arterial circulation during the cardiac cycle. |\n| **DIABP** | Diastolic Blood Pressure | The minimum blood pressure in the systemic arterial circulation during the cardiac cycle. |\n| **BMI** | Body Mass Index | A general indicator of the body fat an individual is carrying based upon the ratio of weight to height. |\n| **PULSE** | Pulse Rate | — |\n| **TEMP** | Temperature | — |\n| **WEIGHT** | Weight | — |\n| **HEIGHT** | Height | — |\n| **BSA** | Body Surface Area | A measure of the 2-dimensional extent of the body surface. |\n| **BMR** | Basal Metabolic Rate | The measurement of a subject's energy expenditure when at rest. |\n| **BODYFATM** | Body Fat Measurement | A measurement of the total fat mass within the subject's body. |\n\n**[Source: terminology/core/vs.md — Vital Signs Test Code (C66741)]**\n\n## Corresponding VSTEST Values\n\nThe associated **VSTEST** (Vital Signs Test Name) uses codelist **C67153** (also extensible), with corresponding values such as:\n- **SYSBP** → \"Systolic Blood Pressure\"\n- **DIABP** → \"Diastolic Blood Pressure\"\n- **BMI** → \"Body Mass Index\"\n\n**[Source: domains/VS/spec.md — VSTEST; terminology/core/vs.md — Vital Signs Test Name (C67153)]**"
    },
    "on": {
      "answer": "Based on the retrieved context:\n\n## VSTESTCD Controlled Terminology\n\nThe controlled terminology codelist code for VSTESTCD is **C66741** (Vital Signs Test Code). This codelist is extensible.\n\n**[Source: domains/VS/spec.md — VSTESTCD]**\n\n## Examples of Standard Vital Signs Test Codes\n\nFrom the Vital Signs Test Code (C66741) terminology file, examples include:\n\n| CDISC Submission Value | CDISC Synonym(s) | Code |\n|------------------------|-------------------|------|\n| **SYSBP** | Systolic Blood Pressure | C25298 |\n| **DIABP** | Diastolic Blood Pressure | C25299 |\n| **PULSE** | Pulse Rate | C49676 |\n| **TEMP** | Temperature | C49677 |\n| **WEIGHT** | Weight | C49678 |\n| **HEIGHT** | Height | C49679 |\n| **BMI** | Body Mass Index | C16358 |\n| **BSA** | Body Surface Area | C25157 |\n| **RESP** | Respiratory Rate | C49675 |\n| **MAP** | Mean Arterial Pressure | C49672 |\n| **O2SAT** | Oxygen Saturation | C49670 |\n\n**[Source: terminology/core/vs.md — Vital Signs Test Code (C66741)]**\n\n**Note:** The specific NCI codes for each individual test code value (e.g., C25298 for SYSBP) are not present in the retrieved context and would need to be confirmed in the full Vital Signs Test Code terminology file."
    }
  },
  {
    "id": "s01",
    "category": "single_domain",
    "question": "In the DM domain, what is the controlled terminology codelist code for the SEX variable, and what are its four permitted submission values?",
    "expected_facts": [
      "C66731",
      "F",
      "M",
      "U",
      "UNDIFFERENTIATED"
    ],
    "expected_sources": [
      "terminology/core/dm.md",
      "domains/DM/spec.md"
    ],
    "sources": [
      "domains/DM/spec.md",
      "terminology/core/dm.md",
      "domains/DM/assumptions.md",
      "domains/DM/spec.md",
      "chapters/ch04_general_assumptions.md",
      "chapters/ch04_general_assumptions.md",
      "domains/LB/assumptions.md",
      "domains/DM/examples.md",
      "terminology/supplementary/supplementary_part5.md",
      "domains/TS/assumptions.md",
      "chapters/ch01_introduction.md",
      "terminology/questionnaires/questionnaires_part27.md",
      "domains/DS/spec.md",
      "domains/CO/assumptions.md",
      "domains/RELSPEC/assumptions.md"
    ],
    "off": {
      "answer": "Based on the retrieved context, the controlled terminology codelist code for the **SEX** variable in the DM domain is **C66731**, and its four permitted submission values are **F**, **M**, **U**, and **UNDIFFERENTIATED**.\n\n**Details:**\n\n- **Codelist Code:** C66731 (Sex) [Source: domains/DM/spec.md]\n- **Extensible:** No [Source: terminology/core/dm.md]\n- **Permitted Submission Values:**\n  - **F** (Female) — A person who belongs to the sex that normally produces ova. [Source: terminology/core/dm.md]\n  - **M** (Male) — A person who belongs to the sex that normally produces sperm. [Source: terminology/core/dm.md]\n  - **U** (Unknown) — Not known, not observed, not recorded, or refused. [Source: terminology/core/dm.md]\n  - **UNDIFFERENTIATED** — A person born with genitalia and/or secondary sexual characteristics of indeterminate sex, or which combine features of both sexes. [Source: terminology/core/dm.md]"
    },
    "on": {
      "answer": "Based on the retrieved context, the controlled terminology codelist code for the SEX variable in the DM domain is **C66731**, and its four permitted submission values are **F**, **M**, **U**, and **UNDIFFERENTIATED**.\n\n**Details:**\n\n- **Variable:** SEX\n- **Label:** Sex\n- **Type:** Char\n- **Role:** Record Qualifier\n- **Core:** Req\n- **Controlled Terms Codelist Code:** C66731 **[Source: domains/DM/spec.md]**\n\n**Permitted Submission Values (from codelist C66731, \"Sex\"):**\n\n| Code | CDISC Submission Value | CDISC Synonym(s) | CDISC Definition |\n|------|----------------------|-------------------|------------------|\n| C16576 | F | Female | A person who belongs to the sex that normally produces ova. The term is used to indicate biological sex distinctions, or cultural gender role distinctions, or both. (NCI) |\n| C20197 | M | Male | A person who belongs to the sex that normally produces sperm. The term is used to indicate biological sex distinctions, cultural gender role distinctions, or both. (NCI) |\n| C17998 | U | U; UNK; Unknown | Not known, not observed, not recorded, or refused. (NCI) |\n| C45908 | UNDIFFERENTIATED |  | A person (one of unisexual specimens) who is born with genitalia and/or secondary sexual characteristics of indeterminate sex, or which combine features of both sexes. (NCI) |\n\n**[Source: terminology/core/dm.md]**\n\nThe codelist is **non-extensible** (Extensible: No). **[Source: terminology/core/dm.md]**"
    }
  },
  {
    "id": "s05",
    "category": "single_domain",
    "question": "In the VS domain, what is the controlled terminology codelist code for the VSTESTCD variable? Name the codelist, state whether it is extensible, and give three example TESTCD values listed for blood pressure and heart rate.",
    "expected_facts": [
      "C66741",
      "Vital Signs Test Code",
      "Extensible: Yes",
      "SYSBP",
      "DIABP",
      "HR"
    ],
    "expected_sources": [
      "domains/VS/spec.md",
      "terminology/core/vs.md"
    ],
    "sources": [
      "domains/VS/spec.md",
      "terminology/core/vs.md",
      "chapters/ch04_general_assumptions.md",
      "chapters/ch04_general_assumptions.md",
      "domains/IS/assumptions.md",
      "domains/FT/assumptions.md",
      "domains/QS/assumptions.md",
      "domains/VS/assumptions.md",
      "domains/VS/examples.md",
      "domains/VS/spec.md",
      "domains/VS/spec.md",
      "domains/CV/spec.md",
      "chapters/ch01_introduction.md",
      "domains/QS/spec.md",
      "domains/IS/assumptions.md"
    ],
    "off": {
      "answer": "Based on the retrieved context, the controlled terminology codelist for the VSTESTCD variable in the VS domain is **C66741**.\n\n- **Codelist Name:** Vital Signs Test Code\n- **Extensible:** The context does not explicitly state whether C66741 is extensible. However, the context for another codelist (C66770, Units for Vital Signs Results) explicitly states \"Extensible: Yes\" **[Source: terminology/core/vs.md]**. Since no such statement is provided for C66741 in the retrieved text, its extensibility status cannot be confirmed from the provided context.\n- **Example TESTCD values:** The context does not provide the specific values within the C66741 codelist. However, based on the VS domain specification and examples, three example TESTCD values for blood pressure and heart rate are:\n    - **SYSBP** (Systolic Blood Pressure) **[Source: domains/VS/spec.md — VSTESTCD]**\n    - **DIABP** (Diastolic Blood Pressure) **[Source: domains/VS/spec.md — VSTESTCD]**\n    - **PULSE** (Pulse Rate) **[Source: domains/VS/examples.md — Example 1]**"
    },
    "on": {
      "answer": "Based on the retrieved context, the controlled terminology codelist code for the VSTESTCD variable is **C66741**.\n\n- **Codelist Name:** Vital Signs Test Code **[Source: domains/VS/spec.md — Controlled Terminology]**\n- **Extensible:** The context does not explicitly state whether this codelist is extensible. The retrieved context for the \"Units for Vital Signs Results (C66770)\" codelist explicitly states \"Extensible: Yes\" **[Source: terminology/core/vs.md]**, but no such statement is provided for C66741 in the retrieved chunks. Therefore, extensibility cannot be confirmed from the available context.\n- **Example TESTCD values:** The context provides the following examples for blood pressure and heart rate:\n    - **SYSBP** (Systolic Blood Pressure) **[Source: domains/VS/spec.md — VSTESTCD]**\n    - **DIABP** (Diastolic Blood Pressure) **[Source: domains/VS/spec.md — VSTESTCD]**\n    - **PULSE** (Pulse Rate) **[Source: domains/VS/examples.md — Example 1]**"
    }
  },
  {
    "id": "q19",
    "category": "mixed",
    "question": "What controlled terminology codelist is used for DSDECOD when DSCAT equals 'DISPOSITION EVENT', and list specific CDISC Submission Values from that codelist for reasons of non-completion.",
    "expected_facts": [
      "NCOMPLT",
      "C66727"
    ],
    "expected_sources": [
      "domains/DS/assumptions.md",
      "terminology/core/disposition.md"
    ],
    "sources": [
      "domains/DS/spec.md",
      "terminology/core/disposition.md",
      "domains/DS/assumptions.md",
      "domains/DS/assumptions.md",
      "domains/DS/spec.md",
      "domains/DS/assumptions.md",
      "domains/DS/spec.md",
      "domains/LB/assumptions.md",
      "VARIABLE_INDEX.md",
      "domains/DS/spec.md",
      "domains/RELSPEC/assumptions.md",
      "domains/BS/assumptions.md",
      "domains/CE/spec.md",
      "domains/DV/spec.md",
      "domains/RS/assumptions.md"
    ],
    "off": {
      "answer": "Based on the retrieved context, when `DSCAT` = \"DISPOSITION EVENT\", the controlled terminology codelist used for `DSDECOD` is **C66727 (Completion/Reason for Non-Completion)**.\n\n**[Source: domains/DS/spec.md — DSDECOD; domains/DS/assumptions.md — item_3.b]**\n\nThe context does not provide the full list of CDISC Submission Values from the C66727 codelist. However, based on the assumptions, the following specific values are mentioned for reasons of non-completion:\n\n- **LOST TO FOLLOW-UP** — Used when a subject does not complete and the verbatim reason (e.g., \"Subject moved\") is coded to this standardized term. **[Source: domains/DS/assumptions.md — item_3.b.ii]**\n- **ADVERSE EVENT** — Used when the reason for discontinuation is an adverse event (e.g., DSTERM = \"SEVERE NAUSEA\" maps to DSDECOD = \"ADVERSE EVENT\"). **[Source: domains/DS/assumptions.md — item_5]**\n- **WITHDREW CONSENT** — Used when the subject refuses further treatment (e.g., as a secondary reason in SUPPDS). **[Source: domains/DS/assumptions.md — item_5]**\n\nThe codelist C66727 is extensible, meaning sponsors may add terms not already published, but they must use the CDISC Submission Value from the published list when a match exists. **[Source: domains/DS/assumptions.md — item_3.b.ii; domains/LB/assumptions.md — item_7]**"
    },
    "on": {
      "answer": "Based on the retrieved context, when `DSCAT = \"DISPOSITION EVENT\"`, the controlled terminology codelist used for `DSDECOD` is **NCOMPLT** (Completion/Reason for Non-Completion, C66727).\n\n**[Source: domains/DS/assumptions.md item_3b]**\n\nThe context provides the following specific CDISC Submission Values from the NCOMPLT codelist for reasons of non-completion:\n\n- **\"COMPLETED\"** — used when the subject completed the disposition event (e.g., study participation or treatment).\n- **\"LOST TO FOLLOW-UP\"** — used as an example of a coded term for a non-completion reason (e.g., when `DSTERM = \"Subject moved\"`).\n\n**[Source: domains/DS/assumptions.md item_3b(i) and 3b(ii)]**\n\n**Note:** The NCOMPLT codelist is extensible, meaning additional terms may be added by the sponsor. The full list of published terms should be confirmed in the CDISC Controlled Terminology file for NCOMPLT (C66727). The context does not provide a complete enumeration of all possible non-completion reasons beyond these two examples."
    }
  },
  {
    "id": "q01",
    "category": "single_domain",
    "question": "What is AETERM and what are its variable attributes in the AE domain?",
    "expected_facts": [
      "Topic",
      "Char",
      "Req",
      "Verbatim"
    ],
    "expected_sources": [
      "domains/AE/spec.md"
    ],
    "sources": [
      "domains/AE/spec.md",
      "domains/AE/spec.md",
      "domains/AE/spec.md",
      "domains/AE/spec.md",
      "domains/AE/assumptions.md",
      "domains/AE/examples.md",
      "domains/FA/examples.md",
      "domains/AE/assumptions.md",
      "domains/DV/assumptions.md",
      "chapters/ch04_general_assumptions.md",
      "domains/AE/assumptions.md",
      "chapters/ch04_general_assumptions.md",
      "chapters/ch04_general_assumptions.md",
      "domains/AE/examples.md",
      "domains/AE/assumptions.md"
    ],
    "off": {
      "answer": "## AETERM — Reported Term for the Adverse Event\n\n**AETERM** is the topic variable for the AE (Adverse Events) domain. It captures the verbatim name of the adverse event as reported by the investigator or collected on the CRF.\n\n### Variable Attributes\n\n| Attribute | Value |\n|-----------|-------|\n| **Order** | 9 |\n| **Label** | Reported Term for the Adverse Event |\n| **Type** | Char |\n| **Controlled Terms** | (none — free text) |\n| **Role** | Topic |\n| **Core** | Req |\n| **CDISC Notes** | Verbatim name of the event. |\n\n**[Source: domains/AE/spec.md — AETERM]**\n\n### Key Business Rules\n\n1. **Required variable**: AETERM must always have a value. It is the topic variable for the AE dataset. **[Source: domains/AE/assumptions.md — item_2a]**\n\n2. **Verbatim text**: AETERM captures the exact term as collected from the source (e.g., CRF). It is not modified for coding purposes. **[Source: domains/AE/assumptions.md — item_2a]**\n\n3. **Coding relationship**: If the verbatim term is modified to facilitate coding, the modified version is stored in **AEMODIFY** (permissible variable). The dictionary-coded preferred term is stored in **AEDECOD** (required variable). **[Source: chapters/ch04_general_assumptions.md — §4.3.6]**\n\n4. **Multiple values**: If multiple adverse event terms are reported in a single response (e.g., \"Headache and nausea\"), the sponsor is expected to split them into separate records or query the site for clarification before submission. **[Source: chapters/ch04_general_assumptions.md — §4.2.8.1]**\n\n### Example Values\n\nFrom the AE example dataset:\n- `POUNDING HEADACHE` (modified to `Headache` in AEMODIFY, coded as `Headache` in AEDECOD)\n- `BACK PAIN FOR 5 HOURS` (modified to `Back pain` in AEMODIFY, coded as `Back pain` in AEDECOD)\n- `PULMONARY EMBOLISM` (coded as `Pulmonary embolism` in AEDECOD)\n\n**[Source: domains/AE/examples.md — Example 1]**"
    },
    "on": {
      "answer": "Based on the retrieved context, **AETERM** is the Reported Term for the Adverse Event in the AE domain.\n\n### Variable Attributes\n\n| Attribute | Value |\n|-----------|-------|\n| **Label** | Reported Term for the Adverse Event |\n| **Type** | Char |\n| **Controlled Terms** | (none) |\n| **Role** | Topic |\n| **Core** | Req |\n| **CDISC Notes** | Verbatim name of the event. |\n\n**[Source: domains/AE/spec.md — AETERM]**\n\n### Additional Context\n\n- AETERM captures the verbatim term collected for the event and is the topic variable for the AE dataset. It is a required variable and must have a value. **[Source: domains/AE/assumptions.md — item_2a]**\n- If the sponsor's procedure permits modification of the verbatim term for coding, the modified text is stored in AEMODIFY. **[Source: domains/AE/assumptions.md — item_2b]**\n- The dictionary-derived term (e.g., MedDRA Preferred Term) is stored in AEDECOD, which is also a required variable. **[Source: domains/AE/assumptions.md — item_2c]**\n- For the Events general observation-class model, the topic variable (--TERM) is typically stored as verbatim text. **[Source: chapters/ch04_general_assumptions.md — 4.3.6]**"
    }
  },
  {
    "id": "q24",
    "category": "single_domain",
    "question": "What is the EX (Exposure) domain used for and what is the Topic variable EXTRT?",
    "expected_facts": [
      "EXTRT",
      "Interventions",
      "protocol-specified"
    ],
    "expected_sources": [
      "domains/EX/spec.md"
    ],
    "sources": [
      "domains/EX/spec.md",
      "domains/EX/spec.md",
      "domains/EX/spec.md",
      "domains/EX/spec.md",
      "domains/EX/assumptions.md",
      "domains/EX/assumptions.md",
      "domains/EX/assumptions.md",
      "domains/EX/assumptions.md",
      "VARIABLE_INDEX.md",
      "domains/EC/assumptions.md",
      "domains/EC/spec.md",
      "domains/EX/assumptions.md",
      "chapters/ch04_general_assumptions.md",
      "domains/EX/examples.md",
      "domains/SR/examples.md"
    ],
    "off": {
      "answer": "## EX (Exposure) Domain — Purpose and Topic Variable\n\n### Domain Purpose\n\nThe EX (Exposure) domain represents **protocol-specified study treatment administrations** and is used to capture exposure to investigational products, active comparators, and placebo. It is a **required domain** for all studies that include protocol-specified study treatment. **[Source: domains/EX/assumptions.md — item_1]**\n\nKey characteristics:\n- EX is typically a **derived dataset**, where EXDOSU reflects the protocol-specified unit per study treatment. Collected data points (e.g., number of tablets, total volume infused) are combined with additional inputs (e.g., randomization file, concentration, dosage strength, product accountability) to derive EX records. **[Source: domains/EX/assumptions.md — item_1b]**\n- The EX domain should contain **1 record per constant-dosing interval per subject**. A constant-dosing interval may include any period described in terms of a known treatment given at a consistent dose, frequency, infusion rate, etc. **[Source: domains/EX/assumptions.md — item_1d]**\n- Treatments that are **not protocol-specified** should be represented in the Concomitant/Prior Medications (CM) or another Interventions domain. **[Source: domains/EX/assumptions.md — item_1a]**\n- Collected exposure data points (as collected) are represented in the **EC (Exposure as Collected)** domain. When both EC and EX are implemented, the relationship between records can be described using RELREC. **[Source: domains/EX/assumptions.md — item_5]**\n\n### Topic Variable: EXTRT\n\n| Attribute | Value |\n|-----------|-------|\n| **Label** | Name of Treatment |\n| **Type** | Char |\n| **Role** | Topic |\n| **Core** | Required |\n| **Controlled Terms** | — (not specified; sponsor-defined) |\n\n**[Source: VARIABLE_INDEX.md — EX section]**\n\n**CDISC Notes / Rules:**\n- EXTRT captures the name of the protocol-specified study treatment and is the **topic variable**. It is a **required variable** and must have a value. **[Source: domains/EX/assumptions.md — item_2a]**\n- EXTRT must include **only the treatment name** and must **not** include dosage, formulation, or other qualifying information. For example, \"ASPIRIN 100MG TABLET\" is not a valid value for EXTRT. This example should be expressed as:\n  - EXTRT = \"ASPIRIN\"\n  - EXDOSE = \"100\"\n  - EXDOSU = \"mg\"\n  - EXDOSFRM = \"TABLET\" **[Source: domains/EX/assumptions.md — item_2a]**\n- Doses of placebo should be represented by **EXTRT = \"PLACEBO\"** and EXDOSE = \"0\" (indicating 0 mg of active ingredient). **[Source: domains/EX/assumptions.md — item_2b]**\n\n### Related Domains\n\n- **Same class (Interventions):** AG, CM, EC, ML, PR, SU\n- **Shared Dataset:** EC (Exposure as Collected) — exposure vs exposure as collected **[Source: domains/EX/spec.md — Related Domains]**"
    },
    "on": {
      "answer": "Based on the retrieved context, the EX (Exposure) domain is used to represent protocol-specified study treatment exposure, and the Topic variable is EXTRT.\n\n## EX Domain Purpose\n\nThe EX domain captures exposure to protocol-specified study treatments, including placebo, active comparators, and investigational products. It is recognized in most cases as a **derived dataset** where EXDOSU reflects the protocol-specified unit per study treatment. Collected data points (e.g., number of tablets, total volume infused) along with additional inputs (e.g., randomization file, concentration, dosage strength, product accountability) are used to derive records in the EX domain. **[Source: domains/EX/assumptions.md -- item_1]**\n\nKey characteristics:\n- The EX domain is **required** for all studies that include protocol-specified study treatment. **[Source: domains/EX/assumptions.md -- item_1c]**\n- Treatments that are **not** protocol-specified should be represented in the Concomitant/Prior Medications (CM) or another Interventions domain. **[Source: domains/EX/assumptions.md -- item_1a]**\n- The EX domain should contain 1 record per constant-dosing interval per subject. **[Source: domains/EX/assumptions.md -- item_1d]**\n- Collected exposure data points are represented in the **Exposure as Collected (EC)** domain, and the relationship between EC and EX records can be described in RELREC. **[Source: domains/EX/assumptions.md -- item_5]**\n\n## EXTRT — Topic Variable\n\n| Attribute | Value |\n|-----------|-------|\n| **Label** | Name of Treatment |\n| **Type** | Char |\n| **Role** | Topic |\n| **Core** | Req |\n| **Controlled Terms** | — |\n\n**[Source: domains/EX/spec.md via VARIABLE_INDEX.md -- EX — Exposure (Interventions)]**\n\n**CDISC Notes / Rules:**\n- EXTRT captures the name of the protocol-specified study treatment and is the topic variable. It is a **required variable** and must have a value. **[Source: domains/EX/assumptions.md -- item_2a]**\n- EXTRT must include **only the treatment name** and must **not** include dosage, formulation, or other qualifying information. For example, \"ASPIRIN 100MG TABLET\" is not a valid value for EXTRT. This example should be expressed as EXTRT = \"ASPIRIN\", EXDOSE = \"100\", EXDOSU = \"mg\", and EXDOSFRM = \"TABLET\". **[Source: domains/EX/assumptions.md -- item_2a]**\n- Doses of placebo should be represented by EXTRT = \"PLACEBO\" and EXDOSE = \"0\" (indicating 0 mg of active ingredient was taken or administered). **[Source: domains/EX/assumptions.md -- item_2b]**"
    }
  },
  {
    "id": "q34",
    "category": "cross_domain",
    "question": "Which SDTM domains share the controlled terminology codelist for NY (No Yes Response, C66742), and what variable typically uses this codelist in those domains?",
    "expected_facts": [
      "C66742",
      "NY"
    ],
    "expected_sources": [
      "VARIABLE_INDEX.md"
    ],
    "sources": [
      "VARIABLE_INDEX.md",
      "terminology/core/general_part4.md",
      "chapters/ch04_general_assumptions.md",
      "chapters/ch04_general_assumptions.md",
      "model/01_concepts_and_terms.md",
      "chapters/ch04_general_assumptions.md",
      "domains/RS/assumptions.md",
      "chapters/ch10_appendices.md",
      "domains/RS/assumptions.md",
      "chapters/ch01_introduction.md",
      "domains/RELREC/spec.md",
      "domains/SV/spec.md",
      "domains/CO/assumptions.md",
      "domains/TM/spec.md",
      "domains/SUPPQUAL/spec.md"
    ],
    "off": {
      "answer": "Based on the provided context, the **No Yes Response (C66742)** codelist is shared across multiple SDTM domains. The following domains and their respective variables use this codelist:\n\n1. **SV (Subject Visits)** — `SVPRESP`, `SVOCCUR`, `SVEPCHGI`  \n   **[Source: domains/SV/spec.md — Controlled Terminology]**\n\n2. **TM (Trial Disease Milestones)** — `TMRPT`  \n   **[Source: domains/TM/spec.md — Controlled Terminology]**\n\nAdditionally, the codelist is referenced in the **general controlled terminology** file for **No Yes Response (C66742)**, which defines the permissible values: `Y` (Yes), `N` (No), `U` (Unknown), and `NA` (Not Applicable).  \n**[Source: terminology/core/general_part4.md — No Yes Response (C66742)]**\n\n---\n\n### Summary Table\n\n| Domain | Variable(s) Using C66742 |\n|--------|--------------------------|\n| SV (Subject Visits) | SVPRESP, SVOCCUR, SVEPCHGI |\n| TM (Trial Disease Milestones) | TMRPT |\n\n**Note:** The codelist is extensible = No, meaning only the four values (`Y`, `N`, `U`, `NA`) are permitted."
    },
    "on": {
      "answer": "Based on the retrieved context, the following SDTM domains share the controlled terminology codelist **No Yes Response (C66742)**:\n\n1. **SV (Subject Visits)** — The variable **SVPRESP**, **SVOCCUR**, and **SVEPCHGI** use this codelist.  \n   **[Source: domains/SV/spec.md — Controlled Terminology]**\n\n2. **TM (Trial Disease Milestones)** — The variable **TMRPT** uses this codelist.  \n   **[Source: domains/TM/spec.md — Controlled Terminology]**\n\nThe codelist **No Yes Response (C66742)** is defined as non-extensible and contains the following four values: **N** (No), **NA** (Not Applicable), **U** (Unknown), and **Y** (Yes).  \n**[Source: terminology/core/general_part4.md — No Yes Response (C66742)]**\n\n**Note:** The context does not explicitly list all domains that use this codelist. The two domains above are the only ones for which the retrieved context directly confirms the use of C66742. Other domains (e.g., those with --PRESP variables) may also use this codelist, but that is not confirmed in the provided context."
    }
  },
  {
    "id": "q66",
    "category": "cross_domain",
    "question": "Which SDTM domains include the VISITNUM timing variable?",
    "expected_facts": [
      "VISITNUM",
      "Visit Number",
      "LB",
      "VS"
    ],
    "expected_sources": [
      "VARIABLE_INDEX.md"
    ],
    "sources": [
      "VARIABLE_INDEX.md",
      "domains/EX/assumptions.md",
      "chapters/ch04_general_assumptions.md",
      "domains/SU/assumptions.md",
      "model/01_concepts_and_terms.md",
      "chapters/ch02_fundamentals.md",
      "domains/AG/spec.md",
      "chapters/ch04_general_assumptions.md",
      "domains/FA/spec.md",
      "chapters/ch03_submitting_data.md",
      "domains/IE/spec.md",
      "chapters/ch01_introduction.md",
      "domains/CV/spec.md",
      "chapters/ch04_general_assumptions.md",
      "domains/MI/spec.md"
    ],
    "off": {
      "answer": "Based on the provided context, I can identify the following SDTM domains that include the VISITNUM timing variable:\n\n1. **EX (Exposure)** — VISITNUM may be added as an additional timing variable if the subject is only exposed to study medication within a clinical encounter. **[Source: domains/EX/assumptions.md, item 4a]**\n\n2. **SU (Substance Use)** — VISITNUM would be added as an additional timing variable if substance use information is collected more than once within the CRF (indicating visit-based data). **[Source: domains/SU/assumptions.md, item 4b]**\n\n3. **LB (Laboratory Test Results)** — The example in the general assumptions shows VISITNUM used in LB data. **[Source: chapters/ch04_general_assumptions.md, §4.4.5]**\n\nAdditionally, the general assumption states that for **all domains based on the 3 general observation classes**, VISITNUM should generally be populated even for unplanned visits, as it is expected in many Findings domains. **[Source: chapters/ch04_general_assumptions.md, §4.4.5]**\n\n**Note:** The context does not provide a comprehensive list of all domains that include VISITNUM. The VARIABLE_INDEX.md excerpt shown only covers SV (Subject Visits) variables and does not include VISITNUM. To get a complete list of all domains that include VISITNUM, you would need to consult the full VARIABLE_INDEX.md file, specifically the section listing common timing variables across domains."
    },
    "on": {
      "answer": "Based on the retrieved context, the following SDTM domains include the **VISITNUM** timing variable:\n\n1. **EX (Exposure)** — VISITNUM may be added as an additional timing variable if the subject is only exposed to study medication within a clinical encounter. **[Source: domains/EX/assumptions.md, item 4a]**\n\n2. **SU (Substance Use)** — If substance use information is collected more than once within the CRF (indicating visit-based data), VISITNUM would be added as an additional timing variable. **[Source: domains/SU/assumptions.md, item 4b]**\n\n**Note:** The context does not provide a comprehensive list of all domains that include VISITNUM. The general assumption states that for planned visits, values of VISIT, VISITNUM, and VISITDY must be those defined in the Trial Visits (TV) dataset, and that VISITNUM is expected in many Findings domains. **[Source: chapters/ch04_general_assumptions.md, §4.4.5]** However, the specific domain specification files retrieved (e.g., AG, FA, IE, CV, MI) list VISIT as a Permissible timing variable but do not explicitly list VISITNUM in their spec tables. The context is insufficient to confirm VISITNUM's presence in all domains where it might be expected."
    }
  },
  {
    "id": "q38",
    "category": "concept",
    "question": "How are SDTM domain abbreviation codes assigned? What are the rules for the two-character domain code?",
    "expected_facts": [
      "two-character",
      "DOMAIN"
    ],
    "expected_sources": [
      "chapters/ch02"
    ],
    "sources": [
      "chapters/ch04_general_assumptions.md",
      "domains/SV/spec.md",
      "domains/FT/spec.md",
      "domains/EX/spec.md",
      "domains/IE/spec.md",
      "domains/GF/spec.md",
      "domains/PR/spec.md",
      "domains/MH/spec.md",
      "domains/MI/spec.md",
      "domains/PP/spec.md",
      "domains/ML/spec.md",
      "chapters/ch04_general_assumptions.md",
      "domains/TM/spec.md",
      "chapters/ch02_fundamentals.md",
      "domains/OE/spec.md"
    ],
    "off": {
      "answer": "Based on the SDTMIG v3.4 knowledge base, SDTM domain abbreviation codes are assigned according to the following rules:\n\n## Assignment Rules\n\n1. **Standard Domain Codes**: SDTM datasets are normally named to be consistent with the domain code (e.g., the Demographics dataset is named `dm.xpt`). Standard domain codes are defined in the **SDTM Domain Abbreviation codelist (C66734)** in CDISC Controlled Terminology. **[Source: chapters/ch04_general_assumptions.md §4.1.6]**\n\n2. **Custom Domain Codes**: Domain codes beginning with the letters **X, Y, or Z** have been reserved for the creation of custom domains. Any letter or number may be used in the second position. Note that using codes beginning with X, Y, or Z is optional and not required for custom domains. **[Source: chapters/ch04_general_assumptions.md §4.1.6]**\n\n## Character Restrictions\n\nThe two-character domain code is limited to:\n- **First character**: A–Z only\n- **Second character**: A–Z or 0–9 only\n- **No other characters are allowed**\n\nThis restriction is for compatibility with SAS v5 transport files and with file naming requirements as part of the Electronic Common Technical Document (eCTD). **[Source: chapters/ch04_general_assumptions.md §4.2.2]**\n\n## Usage of the Domain Code\n\nThe 2-character domain code (DOMAIN) is used in four ways:\n1. As the **dataset name**\n2. As the **value of the DOMAIN variable** in that dataset\n3. As a **prefix for most variable names** in that dataset\n4. As a **value in the RDOMAIN variable** in relationship tables **[Source: chapters/ch02_fundamentals.md §2.2]**\n\n## Exceptions to Prefixing\n\nThe following variables are **exceptions** to the rule that all variable names are prefixed with the domain identifier:\n- Required Identifiers (STUDYID, DOMAIN, USUBJID)\n- Commonly used grouping and merge keys (e.g., VISIT, VISITNUM, VISITDY)\n- All Demographics (DM) domain variables other than DMDTC and DMDY\n- All variables in RELREC and SUPPQUAL, and some variables in the Comments and Trial Design datasets **[Source: chapters/ch04_general_assumptions.md §4.2.2]**\n\n## DOMAIN Variable Definition\n\n- **Label**: Domain Abbreviation\n- **Type**: Char\n- **Role**: Identifier\n- **Core**: Req (Required)\n- **CDISC Notes**: Two-character abbreviation for the domain most relevant to the observation. The domain abbreviation is also used as a prefix for variables to ensure uniqueness when datasets are merged. **[Source: domains/SV/spec.md — DOMAIN]**"
    },
    "on": {
      "answer": "Based on the retrieved context, SDTM domain abbreviation codes are assigned according to the following rules:\n\n## Assignment Rules\n\n1. **Two-character code**: Each domain is assigned a unique, 2-character abbreviation code (the DOMAIN variable value). This code is used in four ways:\n   - As the dataset name\n   - As the value of the DOMAIN variable in that dataset\n   - As a prefix for most variable names in that dataset\n   - As a value in the RDOMAIN variable in relationship tables\n\n   **[Source: chapters/ch02_fundamentals.md]**\n\n2. **Character restrictions**: The 2-character domain code is limited to:\n   - First character: A–Z only\n   - Second character: A–Z or 0–9 only\n   - No other characters are allowed\n\n   This restriction is for compatibility with SAS v5 transport files and with eCTD file naming requirements.\n\n   **[Source: chapters/ch04_general_assumptions.md §4.2.2]**\n\n3. **Standard codes**: Datasets are normally named to be consistent with the domain code (e.g., the Demographics dataset DM is named `dm.xpt`). Standard domain codes are defined in the SDTM Domain Abbreviation codelist (C66734) in CDISC Controlled Terminology.\n\n   **[Source: chapters/ch04_general_assumptions.md §4.1.6]**\n\n4. **Custom domain codes**: To avoid conflict with future CDISC-defined domain codes, codes beginning with the letters **X, Y, or Z** have been reserved for custom domains. Any letter or number may be used in the second position. Note that use of X/Y/Z prefixes is optional, not required.\n\n   **[Source: chapters/ch04_general_assumptions.md §4.1.6]**\n\n5. **Exceptions to prefixing**: The following variables are **not** prefixed with the domain identifier:\n   - Required Identifiers: STUDYID, DOMAIN, USUBJID\n   - Commonly used grouping/merge keys: VISIT, VISITNUM, VISITDY\n   - All Demographics (DM) domain variables other than DMDTC and DMDY\n   - All variables in RELREC and SUPPQUAL, and some variables in Comments and Trial Design datasets\n\n   **[Source: chapters/ch04_general_assumptions.md §4.2.2]**\n\n6. **Domain-specific fixed codes**: Some domains require a specific fixed value. For example, the TM (Trial Disease Milestones) domain specification notes that the DOMAIN value \"must be TM.\"\n\n   **[Source: domains/TM/spec.md]**\n\n## Summary\n\n| Rule | Detail |\n|------|--------|\n| Length | 2 characters |\n| First character | A–Z only |\n| Second character | A–Z or 0–9 only |\n| Custom domains | May use X, Y, or Z as first character (optional) |\n| Standard codes | Defined in CDISC codelist C66734 |\n| File naming | Dataset file named after domain code (e.g., `dm.xpt`) |"
    }
  },
  {
    "id": "q100",
    "category": "single_domain",
    "question": "In the TA (Trial Arms) domain, what is the ARMCD variable's role and Core designation, and what is the ETCD variable used for?",
    "expected_facts": [
      "ARMCD",
      "Topic",
      "ETCD",
      "Element Code"
    ],
    "expected_sources": [
      "domains/TA/spec.md"
    ],
    "sources": [
      "domains/TA/spec.md",
      "domains/TA/spec.md",
      "domains/TA/spec.md",
      "domains/TA/spec.md",
      "domains/DM/assumptions.md",
      "domains/TA/examples.md",
      "domains/DM/examples.md",
      "domains/DM/spec.md",
      "domains/TA/assumptions.md",
      "domains/TE/assumptions.md",
      "chapters/ch04_general_assumptions.md",
      "domains/TV/spec.md",
      "domains/DM/spec.md",
      "domains/TV/spec.md",
      "domains/TA/examples.md"
    ],
    "off": {
      "answer": "Based on the provided context, here are the details for the ARMCD and ETCD variables in the TA (Trial Arms) domain:\n\n### ARMCD\n\n- **Role:** Topic **[Source: domains/TA/spec.md -- ARMCD]**\n- **Core:** Req (Required) **[Source: domains/TA/spec.md -- ARMCD]**\n- **Label:** Planned Arm Code\n- **Type:** Char\n- **Controlled Terms:** (None specified in the context)\n- **CDISC Notes:** ARMCD is limited to 20 characters and does not have special character restrictions. The maximum length is longer than for other \"short\" variables to accommodate values needed for crossover trials (e.g., 2-character abbreviations for each treatment separated by hyphens). **[Source: domains/TA/spec.md -- ARMCD]**\n\n### ETCD\n\nThe provided context does not contain a specification for the ETCD variable within the TA domain. However, based on the general naming conventions and the description of the Trial Elements (TE) domain, the following can be inferred:\n\n- **General Convention:** Variables with names ending in \"CD\" are \"short\" versions of associated variables. ETCD is the companion to ELEMENT. **[Source: chapters/ch04_general_assumptions.md -- 4.2.1 Variable-Naming Conventions]**\n- **Usage in TA:** The ETCD variable is used in the TA dataset to reference the unique element code defined in the Trial Elements (TE) dataset. This is evident in the TA examples, where ETCD values like \"SCRN\", \"DBA\", and \"OA\" are used to link each record in the TA domain to a specific element definition in the TE domain. **[Source: domains/TA/examples.md -- Example 3]**\n- **Constraints:** ETCD is limited to 8 characters but does not have the same character restrictions as `--TESTCD`. **[Source: chapters/ch04_general_assumptions.md -- 4.2.1 Variable-Naming Conventions]**\n\n**In summary:** ETCD is a short code used to identify a specific trial element (e.g., \"Screen\", \"Treatment A\") within the TA dataset, linking it to its full definition in the TE dataset."
    },
    "on": {
      "answer": "Based on the retrieved context, here are the answers to your questions:\n\n### ARMCD in the TA Domain\n\nIn the TA (Trial Arms) domain, the ARMCD variable has the following attributes:\n- **Role:** Topic\n- **Core:** Req (Required)\n\n**[Source: domains/TA/spec.md -- ARMCD]**\n\n### ETCD Variable Usage\n\nThe retrieved context does not contain the specification for the ETCD variable within the TA domain. However, based on the context provided, ETCD is used in the TA dataset as a code that identifies a unique element within the trial design.\n\n- In the TA examples, ETCD values such as \"SCRN\", \"DBA\", \"OA\", \"RSC\", and \"DBB\" are used to link each record in the TA dataset to a specific element defined in the Trial Elements (TE) dataset. **[Source: domains/TA/examples.md -- Example 3]**\n- The TE dataset is described as containing \"the element code that is unique for each element\" (ETCD), and the TA dataset uses these codes to define the sequence of elements within each arm. **[Source: domains/TE/assumptions.md -- overview]**\n\n**Note:** The full specification (Label, Type, Role, Core, Controlled Terms) for ETCD is not present in the provided context. To get the complete definition, you would need to consult the TE domain specification file (`domains/TE/spec.md`)."
    }
  }
]