{
  "summary": {
    "n_questions": 102,
    "model": null,
    "threshold": 0.85,
    "source_recall_avg": 0.9902,
    "source_recall_by_category": {
      "concept": 1.0,
      "cross_domain": 0.96,
      "mixed": 1.0,
      "single_domain": 1.0
    },
    "fact_recall_avg": 0.928,
    "fact_recall_by_category": {
      "concept": 0.9067,
      "cross_domain": 0.9267,
      "mixed": 0.91,
      "single_domain": 0.9656
    },
    "overall": 0.9591,
    "total_tokens": 1582109,
    "verdict": "PASS",
    "top_k": 15,
    "structured_lookup": true,
    "hybrid": {
      "fusion": "rrf",
      "alpha": null
    },
    "prompt_guardrail": true
  },
  "results": [
    {
      "id": "q01",
      "category": "single_domain",
      "question": "What is AETERM and what are its variable attributes in the AE domain?",
      "source_recall": 1.0,
      "source_hits": [
        "domains/AE/spec.md"
      ],
      "source_misses": [],
      "top5_sources": [
        "domains/AE/spec.md",
        "domains/AE/spec.md",
        "domains/AE/spec.md",
        "domains/AE/spec.md",
        "domains/AE/assumptions.md"
      ],
      "top5_similarities": [
        0.5884,
        0.5778,
        0.5484,
        0.5477,
        0.6641
      ],
      "fact_recall": 1.0,
      "fact_hits": [
        "Topic",
        "Char",
        "Req",
        "Verbatim"
      ],
      "fact_misses": [],
      "answer_preview": "Based on the provided context, here is the definition and variable attributes for AETERM in the AE domain.\n\nAETERM is the topic variable for the AE domain and captures the verbatim name of the adverse event as reported **[Source: domains/AE/spec.md -- AETERM]**. It is a required variable that must have a value for each record **[Source: domains/AE/assumptions.md -- item_2]**. The verbatim text can be modified to aid coding, with the modified term stored in AEMODIFY, and the coded/derived term stored in AEDECOD **[Source: chapters/ch04_general_assumptions.md -- 4.3.6 Storing Topic Variables for",
      "usage": {
        "prompt_tokens": 13801,
        "completion_tokens": 460,
        "total_tokens": 14261
      },
      "model": "deepseek-v4-pro",
      "elapsed_s": 10.7
    },
    {
      "id": "q02",
      "category": "single_domain",
      "question": "What are the required (Core=Req) variables in the DM domain?",
      "source_recall": 1.0,
      "source_hits": [
        "domains/DM/spec.md"
      ],
      "source_misses": [],
      "top5_sources": [
        "domains/DM/spec.md",
        "domains/DM/spec.md",
        "domains/DM/spec.md",
        "domains/DM/spec.md",
        "chapters/ch04_general_assumptions.md"
      ],
      "top5_similarities": [
        0.4813,
        0.4255,
        0.4052,
        0.404,
        0.5064
      ],
      "fact_recall": 0.5714,
      "fact_hits": [
        "STUDYID",
        "DOMAIN",
        "USUBJID",
        "SUBJID"
      ],
      "fact_misses": [
        "SITEID",
        "SEX",
        "COUNTRY"
      ],
      "answer_preview": "Based on the DM domain specification, the following variables have a Core designation of **Req** (Required), meaning they must always be included in the dataset and cannot be null for any record.\n\n| Variable | Label | Type | Role | Core | CDISC Notes |\n|----------|-------|------|------|------|-------------|\n| **STUDYID** | Study Identifier | Char | Identifier | Req | Unique identifier for a study. |\n| **DOMAIN** | Domain Abbreviation | Char | Identifier | Req | Two-character abbreviation for the domain. |\n| **USUBJID** | Unique Subject Identifier | Char | Identifier | Req | Identifier used to ",
      "usage": {
        "prompt_tokens": 13593,
        "completion_tokens": 441,
        "total_tokens": 14034
      },
      "model": "deepseek-v4-pro",
      "elapsed_s": 13.48
    },
    {
      "id": "q03",
      "category": "single_domain",
      "question": "What are the key assumptions for adverse event data collection and coding?",
      "source_recall": 1.0,
      "source_hits": [
        "domains/AE/assumptions.md"
      ],
      "source_misses": [],
      "top5_sources": [
        "domains/AE/assumptions.md",
        "domains/FA/examples.md",
        "domains/AE/assumptions.md",
        "domains/AE/assumptions.md",
        "domains/AE/assumptions.md"
      ],
      "top5_similarities": [
        0.5919,
        0.5041,
        0.5608,
        0.5755,
        0.5716
      ],
      "fact_recall": 1.0,
      "fact_hits": [
        "AETERM",
        "MedDRA",
        "AEDECOD"
      ],
      "fact_misses": [],
      "answer_preview": "Based on the AE domain assumptions retrieved, here are the key assumptions for adverse event data collection and coding.\n\n## 1. AE Definition and Scope (AE Assumption 1)\n\n- An adverse event is defined per ICH E2A: \"any untoward medical occurrence in a patient or clinical investigation subject administered a pharmaceutical product and which does not necessarily have to have a causal relationship with this treatment.\"\n- Sponsors may extend or limit the scope of AE collection in consultation with regulatory authorities (e.g., collecting pre-treatment events, not collecting events assessed as effi",
      "usage": {
        "prompt_tokens": 16261,
        "completion_tokens": 1327,
        "total_tokens": 17588
      },
      "model": "deepseek-v4-pro",
      "elapsed_s": 24.87
    },
    {
      "id": "q04",
      "category": "single_domain",
      "question": "What is the purpose of the TV (Trial Visits) domain and what variables does it contain?",
      "source_recall": 1.0,
      "source_hits": [
        "domains/TV/spec.md"
      ],
      "source_misses": [],
      "top5_sources": [
        "domains/TV/spec.md",
        "domains/TV/spec.md",
        "domains/TV/spec.md",
        "domains/TV/spec.md",
        "domains/SV/assumptions.md"
      ],
      "top5_similarities": [
        0.5894,
        0.4733,
        0.4706,
        0.47,
        0.6873
      ],
      "fact_recall": 1.0,
      "fact_hits": [
        "VISITNUM",
        "VISIT"
      ],
      "fact_misses": [],
      "answer_preview": "The TV (Trial Visits) domain is part of the Trial Design model. Its purpose is to describe the **planned schedule of clinical encounters (visits)** for a clinical trial. It defines the protocol-specified visits (by name, number, and planned study day) and the rules that govern when each visit starts and ends, for each arm when visits differ across arms. TV enables comparison of a subject’s actual visit schedule (in the SV domain) against the planned schedule **[Source: domains/SV/assumptions.md, item_1]**. The dataset is typically structured as one record per planned visit per arm; when the vi",
      "usage": {
        "prompt_tokens": 14091,
        "completion_tokens": 2288,
        "total_tokens": 16379
      },
      "model": "deepseek-v4-pro",
      "elapsed_s": 48.76
    },
    {
      "id": "q05",
      "category": "single_domain",
      "question": "In the PE (Physical Examination) domain, what is the structure of the dataset, what is the role of the PETESTCD variable, and what value should PETESTCD have when the results of the entire physical examination are represented in one record?",
      "source_recall": 1.0,
      "source_hits": [
        "domains/PE/spec.md"
      ],
      "source_misses": [],
      "top5_sources": [
        "domains/PE/spec.md",
        "domains/PE/spec.md",
        "domains/PE/spec.md",
        "domains/PE/spec.md",
        "VARIABLE_INDEX.md"
      ],
      "top5_similarities": [
        0.731,
        0.7026,
        0.5645,
        0.5643,
        0.6909
      ],
      "fact_recall": 1.0,
      "fact_hits": [
        "PETESTCD",
        "Topic",
        "PHYSEXAM"
      ],
      "fact_misses": [],
      "answer_preview": "Based on the provided context, here are the details for the PE domain:\n\nThe dataset structure for the Physical Examination (PE) domain is **\"One record per finding per body system per subject\"** [Source: chapters/ch03_submitting_data.md]. It belongs to the **Findings** general observation class [Source: chapters/ch03_submitting_data.md].\n\nThe role of the **PETESTCD** variable is **Topic** [Source: domains/PE/spec.md].\n\nWhen the results of the entire physical examination are represented in a single record, the value for PETESTCD should be **\"PHYSEXAM\"** [Source: domains/PE/spec.md].",
      "usage": {
        "prompt_tokens": 16739,
        "completion_tokens": 401,
        "total_tokens": 17140
      },
      "model": "deepseek-v4-pro",
      "elapsed_s": 10.18
    },
    {
      "id": "q21",
      "category": "single_domain",
      "question": "What is the LBTESTCD variable in the LB (Laboratory Test Results) domain? Describe its role, controlled terminology codelist code, and naming constraints.",
      "source_recall": 1.0,
      "source_hits": [
        "domains/LB/spec.md"
      ],
      "source_misses": [],
      "top5_sources": [
        "domains/LB/spec.md",
        "terminology/core/lb_part2.md",
        "domains/LB/spec.md",
        "domains/LB/assumptions.md",
        "domains/LB/examples.md"
      ],
      "top5_similarities": [
        0.7837,
        0.5222,
        0.7118,
        0.7499,
        0.6639
      ],
      "fact_recall": 1.0,
      "fact_hits": [
        "Topic",
        "C65047",
        "8 characters"
      ],
      "fact_misses": [],
      "answer_preview": "The LBTESTCD variable in the LB domain is the short name for a laboratory test or examination.\n\nHere are its key properties:\n*   **Label**: Lab Test or Examination Short Name\n*   **Role**: Topic\n*   **Controlled Terminology**: C65047 (Laboratory Test Code)\n\nThe specification also defines the following naming constraints for its values:\n*   **Maximum Length**: The value cannot be longer than 8 characters.\n*   **Invalid Starting Character**: It cannot start with a number (e.g., \"1TEST\" is not valid).\n*   **Valid Characters**: It can only contain letters, numbers, or underscores.\n\nExamples given ",
      "usage": {
        "prompt_tokens": 15725,
        "completion_tokens": 450,
        "total_tokens": 16175
      },
      "model": "deepseek-v4-pro",
      "elapsed_s": 11.66
    },
    {
      "id": "q22",
      "category": "single_domain",
      "question": "What is the VS (Vital Signs) domain and what are some examples of VSTESTCD values? Include the codelist code.",
      "source_recall": 1.0,
      "source_hits": [
        "domains/VS/spec.md"
      ],
      "source_misses": [],
      "top5_sources": [
        "domains/VS/spec.md",
        "terminology/core/vs.md",
        "domains/VS/spec.md",
        "VARIABLE_INDEX.md",
        "domains/VS/assumptions.md"
      ],
      "top5_similarities": [
        0.7384,
        0.5465,
        0.6467,
        0.6305,
        0.6914
      ],
      "fact_recall": 1.0,
      "fact_hits": [
        "Findings",
        "VSTESTCD",
        "C66741"
      ],
      "fact_misses": [],
      "answer_preview": "The **VS (Vital Signs)** domain is a **Findings** general-observation-class dataset that records subject vital signs measurements (e.g., blood pressure, heart rate, body temperature). In SDTM, each vital signs test is identified by a pair of variables: **VSTESTCD** (short name) and **VSTEST** (descriptive name).  \n\n**VSTESTCD** (Vital Signs Test Short Name) is a **Topic** variable that must use controlled terminology from codelist **C66741 (Vital Signs Test Code)**.  \nExamples of VSTESTCD values given in the SDTMIG are:\n\n- `SYSBP` → Systolic Blood Pressure  \n- `DIABP` → Diastolic Blood Pressur",
      "usage": {
        "prompt_tokens": 14004,
        "completion_tokens": 804,
        "total_tokens": 14808
      },
      "model": "deepseek-v4-pro",
      "elapsed_s": 18.0
    },
    {
      "id": "q23",
      "category": "single_domain",
      "question": "In the CM (Concomitant Medications) domain, what is the CMTRT variable and what observation class does CM belong to?",
      "source_recall": 1.0,
      "source_hits": [
        "domains/CM/spec.md"
      ],
      "source_misses": [],
      "top5_sources": [
        "domains/CM/spec.md",
        "domains/CM/spec.md",
        "domains/CM/spec.md",
        "domains/CM/spec.md",
        "domains/CM/assumptions.md"
      ],
      "top5_similarities": [
        0.6736,
        0.6034,
        0.5926,
        0.5843,
        0.6595
      ],
      "fact_recall": 1.0,
      "fact_hits": [
        "CMTRT",
        "Interventions",
        "Topic",
        "Req"
      ],
      "fact_misses": [],
      "answer_preview": "According to the provided context, here is the information you requested:\n\n### CMTRT Variable\n\n- **Label:** Reported Name of Drug, Med, or Therapy\n- **Type:** Char\n- **Role:** Topic\n- **Core:** Req\n- **CDISC Notes:** Verbatim medication name that is either preprinted or collected on a CRF.\n\n### Observation Class for CM\n\nCM belongs to the **Interventions** observation class.\n\n**[Source: domains/CM/assumptions.md, overview]** states that CM is \"An interventions domain that contains concomitant and prior medications...\"  \n**[Source: VARIABLE_INDEX.md, CM section]** identifies the domain as \"CM — ",
      "usage": {
        "prompt_tokens": 14415,
        "completion_tokens": 458,
        "total_tokens": 14873
      },
      "model": "deepseek-v4-pro",
      "elapsed_s": 10.3
    },
    {
      "id": "q24",
      "category": "single_domain",
      "question": "What is the EX (Exposure) domain used for and what is the Topic variable EXTRT?",
      "source_recall": 1.0,
      "source_hits": [
        "domains/EX/spec.md"
      ],
      "source_misses": [],
      "top5_sources": [
        "domains/EX/spec.md",
        "domains/EX/spec.md",
        "domains/EX/spec.md",
        "domains/EX/spec.md",
        "domains/EX/assumptions.md"
      ],
      "top5_similarities": [
        0.5483,
        0.5451,
        0.5409,
        0.537,
        0.6559
      ],
      "fact_recall": 0.6667,
      "fact_hits": [
        "EXTRT",
        "Interventions"
      ],
      "fact_misses": [
        "protocol-specified"
      ],
      "answer_preview": "The **EX (Exposure) domain** is an Interventions‑class dataset used to represent protocol‑specified study treatment exposures. It is typically a derived domain that reflects the treatment administered (e.g., investigational product, active comparator, placebo) in the protocol‑specified dose unit (EXDOSU). The domain is required for any study that includes protocol‑specified treatment and should contain one record per constant‑dosing interval per subject. Treatments that are not protocol‑specified belong in CM or another Interventions domain. **[Source: domains/EX/assumptions.md – items 1a‑1d]*",
      "usage": {
        "prompt_tokens": 13533,
        "completion_tokens": 1023,
        "total_tokens": 14556
      },
      "model": "deepseek-v4-pro",
      "elapsed_s": 22.35
    },
    {
      "id": "q25",
      "category": "single_domain",
      "question": "In the MH (Medical History) domain, what is the role of MHTERM and what assumptions guide medical history data collection?",
      "source_recall": 1.0,
      "source_hits": [
        "domains/MH/assumptions.md"
      ],
      "source_misses": [],
      "top5_sources": [
        "domains/MH/spec.md",
        "domains/MH/spec.md",
        "domains/MH/spec.md",
        "domains/MH/spec.md",
        "domains/MH/assumptions.md"
      ],
      "top5_similarities": [
        0.6764,
        0.6118,
        0.5939,
        0.5859,
        0.7369
      ],
      "fact_recall": 1.0,
      "fact_hits": [
        "MHTERM",
        "Topic",
        "Verbatim"
      ],
      "fact_misses": [],
      "answer_preview": "The variable **MHTERM** (Reported Term for the Medical History) serves as the **Topic** variable of the MH domain. It holds either the verbatim term as collected on the CRF, or the prespecified term when a list of conditions was queried, and it is **required** (Core = Req).  \n**[Source: domains/MH/spec.md – MHTERM]**\n\nMedical history data collection in MH is guided by the following key assumptions:\n\n- **Domain scope**: MH is an Events domain that captures the subject’s prior medical history at the start of the trial.  \n  **[Source: domains/MH/assumptions.md – overview]**\n- **Topic variable**: ",
      "usage": {
        "prompt_tokens": 14315,
        "completion_tokens": 1154,
        "total_tokens": 15469
      },
      "model": "deepseek-v4-pro",
      "elapsed_s": 24.53
    },
    {
      "id": "q26",
      "category": "single_domain",
      "question": "Describe the EG (ECG Test Results) domain structure and the EGTESTCD variable, including its controlled terminology codelist codes.",
      "source_recall": 1.0,
      "source_hits": [
        "domains/EG/spec.md"
      ],
      "source_misses": [],
      "top5_sources": [
        "domains/EG/spec.md",
        "terminology/core/eg_part3.md",
        "terminology/core/eg_part2.md",
        "domains/EG/spec.md",
        "VARIABLE_INDEX.md"
      ],
      "top5_similarities": [
        0.7263,
        0.5879,
        0.5242,
        0.7253,
        0.6737
      ],
      "fact_recall": 1.0,
      "fact_hits": [
        "EGTESTCD",
        "Findings",
        "C71153"
      ],
      "fact_misses": [],
      "answer_preview": "The **EG (ECG Test Results)** domain captures electrocardiographic measurements and findings collected during a study. It belongs to the **Findings** general observation class and is structured with a set of standard variables: identifiers (e.g., `EGSEQ`, `EGGRPID`, `EGREFID`), a topic variable pair (`EGTESTCD`/`EGTEST`), grouping qualifiers (`EGCAT`, `EGSCAT`), result qualifiers (`EGORRES`, `EGSTRESC`, `EGSTRESN`, etc.), record qualifiers (`EGPOS`, `EGMETHOD`, `EGLEAD`, `EGCLSIG`, etc.), and timing variables (`EGDTC`, `EGDY`, `EGTPT`, etc.) **[Source: [5] VARIABLE_INDEX.md → EG domain]**.\n\n##",
      "usage": {
        "prompt_tokens": 16222,
        "completion_tokens": 1815,
        "total_tokens": 18037
      },
      "model": "deepseek-v4-pro",
      "elapsed_s": 38.89
    },
    {
      "id": "q27",
      "category": "single_domain",
      "question": "What is the IE (Inclusion/Exclusion) domain and what is the role and maximum length of the IETEST variable?",
      "source_recall": 1.0,
      "source_hits": [
        "domains/IE/spec.md"
      ],
      "source_misses": [],
      "top5_sources": [
        "domains/IE/spec.md",
        "domains/IE/spec.md",
        "domains/IE/spec.md",
        "domains/IE/spec.md",
        "domains/TI/spec.md"
      ],
      "top5_similarities": [
        0.6769,
        0.607,
        0.5335,
        0.5254,
        0.7161
      ],
      "fact_recall": 1.0,
      "fact_hits": [
        "IETEST",
        "200",
        "Synonym Qualifier"
      ],
      "fact_misses": [],
      "answer_preview": "The **IE (Inclusion/Exclusion Criteria Not Met)** domain is a **Findings** domain that captures responses only for those inclusion/exclusion criteria that a subject **did not meet**, not for all criteria in the protocol. Its purpose is to record exceptions to entry criteria rather than full eligibility data. [Source: domains/IE/assumptions.md item 1]\n\n**Variable `IETEST`** – \"Inclusion/Exclusion Criterion\":\n- **Role:** Synonym Qualifier [Source: domains/IE/spec.md – IETEST]\n- **Maximum length:** **200 characters**. The verbatim description of the criterion that was the exception must fit withi",
      "usage": {
        "prompt_tokens": 9714,
        "completion_tokens": 538,
        "total_tokens": 10252
      },
      "model": "deepseek-v4-pro",
      "elapsed_s": 11.25
    },
    {
      "id": "q06",
      "category": "cross_domain",
      "question": "What is SUPPQUAL and when should supplemental qualifiers be used instead of adding variables to a domain?",
      "source_recall": 1.0,
      "source_hits": [
        "domains/SUPPQUAL/spec.md"
      ],
      "source_misses": [],
      "top5_sources": [
        "domains/SUPPQUAL/spec.md",
        "domains/SUPPQUAL/spec.md",
        "domains/SUPPQUAL/spec.md",
        "domains/SUPPQUAL/spec.md",
        "domains/SUPPQUAL/assumptions.md"
      ],
      "top5_similarities": [
        0.5533,
        0.4872,
        0.4705,
        0.4564,
        0.7409
      ],
      "fact_recall": 0.6667,
      "fact_hits": [
        "QNAM",
        "QVAL"
      ],
      "fact_misses": [
        "non-standard"
      ],
      "answer_preview": "SUPPQUAL (Supplemental Qualifiers) is a special‑purpose dataset model used to represent **non‑standard variables (NSVs)** that cannot be added directly to a standardized domain. Because the SDTM does not permit sponsors to insert new variables into a domain, the SUPP-- mechanism (one dataset per parent domain, e.g., SUPPAE, SUPPCM) provides the only sanctioned way to carry additional, record‑level qualifiers that are not part of the domain’s standard specification. **[Source: 5]**  \n\n**Structure** – Each SUPP-- record identifies the parent record via `STUDYID`, `RDOMAIN`, `USUBJID`, `IDVAR`, a",
      "usage": {
        "prompt_tokens": 15599,
        "completion_tokens": 1603,
        "total_tokens": 17202
      },
      "model": "deepseek-v4-pro",
      "elapsed_s": 37.4
    },
    {
      "id": "q07",
      "category": "cross_domain",
      "question": "Which SDTM domains use the EPOCH variable and what is its purpose?",
      "source_recall": 1.0,
      "source_hits": [
        "VARIABLE_INDEX.md"
      ],
      "source_misses": [],
      "top5_sources": [
        "VARIABLE_INDEX.md",
        "chapters/ch04_general_assumptions.md",
        "model/01_concepts_and_terms.md",
        "domains/SR/spec.md",
        "chapters/ch02_fundamentals.md"
      ],
      "top5_similarities": [
        0.5124,
        0.7004,
        11.8134,
        0.6837,
        11.0386
      ],
      "fact_recall": 1.0,
      "fact_hits": [
        "EPOCH",
        "Timing"
      ],
      "fact_misses": [],
      "answer_preview": "Based on the retrieved context, **EPOCH** is a reusable **Timing variable** that records the study epoch (e.g., `\"SCREENING\"`, `\"TREATMENT\"`, `\"FOLLOW-UP\"`) during which an observation was collected. It can be added to many SDTM domains as needed, subject to certain rules.\n\n### Purpose of EPOCH\n- For **Findings**‑class domains, the epoch is derived from the test‑date variable (`--DTC`).  \n- For **Interventions** and **Events**‑class domains, it is derived from the start‑date variable (`--STDTC`).  \n- The variable is **Permissible** in most domains where it appears, and its value must be distin",
      "usage": {
        "prompt_tokens": 14436,
        "completion_tokens": 2461,
        "total_tokens": 16897
      },
      "model": "deepseek-v4-pro",
      "elapsed_s": 51.91
    },
    {
      "id": "q08",
      "category": "cross_domain",
      "question": "How does USUBJID serve as a linking key across SDTM domains?",
      "source_recall": 1.0,
      "source_hits": [
        "domains/DM/spec.md"
      ],
      "source_misses": [],
      "top5_sources": [
        "VARIABLE_INDEX.md",
        "domains/SUPPQUAL/spec.md",
        "chapters/ch04_general_assumptions.md",
        "domains/DM/spec.md",
        "chapters/ch03_submitting_data.md"
      ],
      "top5_similarities": [
        0.4878,
        0.7075,
        10.4468,
        0.6923,
        9.9812
      ],
      "fact_recall": 1.0,
      "fact_hits": [
        "USUBJID",
        "Identifier",
        "unique"
      ],
      "fact_misses": [],
      "answer_preview": "USUBJID is the **universal subject-level identifier** across all SDTM domains. Its definition and placement make it the primary linking key:\n\n- **Uniqueness and scope.** USUBJID uniquely identifies a study subject across all studies within a submission. It is a required (Core = Req) Identifier in DM, where it forms part of the primary key (`STUDYID` + `USUBJID`) [Source: domains/DM/spec.md].\n\n- **Presence in every domain.** The SDTM model includes Identifier variables in all observation class and special-purpose datasets. USUBJID is a required Identifier in every domain (e.g., AE, CM, LB, SV, ",
      "usage": {
        "prompt_tokens": 13931,
        "completion_tokens": 1958,
        "total_tokens": 15889
      },
      "model": "deepseek-v4-pro",
      "elapsed_s": 49.49
    },
    {
      "id": "q09",
      "category": "cross_domain",
      "question": "How are adverse events linked to concomitant medications using RELREC?",
      "source_recall": 1.0,
      "source_hits": [
        "domains/RELREC/spec.md"
      ],
      "source_misses": [],
      "top5_sources": [
        "domains/RELREC/spec.md",
        "domains/AE/spec.md",
        "chapters/ch08_relationships.md",
        "domains/RELREC/examples.md",
        "domains/RELREC/assumptions.md"
      ],
      "top5_similarities": [
        0.4612,
        0.5185,
        0.6173,
        0.583,
        0.5376
      ],
      "fact_recall": 1.0,
      "fact_hits": [
        "RELREC",
        "IDVAR",
        "IDVARVAL"
      ],
      "fact_misses": [],
      "answer_preview": "## How to Link Adverse Events to Concomitant Medications Using RELREC\n\nThe Related Records (RELREC) dataset is used to describe relationships between records for a subject, including linking an adverse event (AE) to concomitant medications (CM) taken in response to that event. **[Source: domains/RELREC/assumptions.md]** and **[Source: chapters/ch08_relationships.md §8.2]**\n\n### 1. The Linking Mechanism\n\nA relationship is defined by adding **one record to RELREC for each record to be related** and assigning an identical **`RELID`** value to all records within the same relationship for a given `",
      "usage": {
        "prompt_tokens": 16282,
        "completion_tokens": 1681,
        "total_tokens": 17963
      },
      "model": "deepseek-v4-pro",
      "elapsed_s": 33.69
    },
    {
      "id": "q10",
      "category": "cross_domain",
      "question": "In oncology studies, how are the TR (Tumor/Lesion Results) domain and RS (Disease Response) domain linked together, and which specific identifier variables are used for each linkage direction?",
      "source_recall": 1.0,
      "source_hits": [
        "domains/TR/assumptions.md",
        "domains/TR/spec.md"
      ],
      "source_misses": [],
      "top5_sources": [
        "domains/TR/spec.md",
        "domains/RS/spec.md",
        "domains/RS/assumptions.md",
        "domains/TR/assumptions.md",
        "domains/TR/assumptions.md"
      ],
      "top5_similarities": [
        0.6207,
        0.6214,
        0.713,
        0.7055,
        0.6926
      ],
      "fact_recall": 1.0,
      "fact_hits": [
        "TRLNKID",
        "TRLNKGRP"
      ],
      "fact_misses": [],
      "answer_preview": "In SDTM oncology domains, the **TR** (Tumor/Lesion Results) and **RS** (Disease Response) domains are linked bidirectionally using a combination of `--LNKGRP` variables and the RELREC relationship dataset. The specific variables depend on the linkage direction:\n\n### 1. TR → RS Linkage (Tumor Results to Response Assessment)\nThe `--LNKGRP` variable is used in TR to group the tumor assessment records that contribute to a specific response evaluation.\n\n- **Variable:** `TRLNKGRP`\n- **Mechanism:** `TRLNKGRP` provides a unique code for each response and the associated tumor/lesion measurements. This ",
      "usage": {
        "prompt_tokens": 15023,
        "completion_tokens": 821,
        "total_tokens": 15844
      },
      "model": "deepseek-v4-pro",
      "elapsed_s": 18.53
    },
    {
      "id": "q28",
      "category": "cross_domain",
      "question": "What is the FA (Findings About Events or Interventions) domain and how does it link to parent domains like AE or CM using FAOBJ?",
      "source_recall": 1.0,
      "source_hits": [
        "domains/FA/spec.md"
      ],
      "source_misses": [],
      "top5_sources": [
        "VARIABLE_INDEX.md",
        "domains/FA/spec.md",
        "domains/AE/spec.md",
        "domains/CM/spec.md",
        "domains/FA/assumptions.md"
      ],
      "top5_similarities": [
        0.5985,
        0.5917,
        0.6388,
        0.4692,
        0.6937
      ],
      "fact_recall": 0.6667,
      "fact_hits": [
        "Findings About",
        "FAOBJ"
      ],
      "fact_misses": [
        "FATESTCD"
      ],
      "answer_preview": "FA (Findings About Events or Interventions) is a **Findings About** domain (a subtype of the Findings observation class) designed to capture **findings that relate to an existing event or intervention**, but that have different timing, require multiple variables, or assess prespecified occurrences. It does not represent the event or intervention itself; instead, it records measurements, assessments, or occurrence indicators *about* those records (**[5]**).\n\n### Purpose and When to Use FA\nThe domain is used when one of the following criteria is met (**[5]**):\n- **Criterion 1** – The finding has",
      "usage": {
        "prompt_tokens": 16652,
        "completion_tokens": 1502,
        "total_tokens": 18154
      },
      "model": "deepseek-v4-pro",
      "elapsed_s": 36.35
    },
    {
      "id": "q29",
      "category": "cross_domain",
      "question": "How do the four Trial Design domains TA (Trial Arms), TE (Trial Elements), TV (Trial Visits), and TI (Trial Inclusion/Exclusion) work together to define a study design?",
      "source_recall": 1.0,
      "source_hits": [
        "domains/TA/assumptions.md",
        "domains/TE/assumptions.md"
      ],
      "source_misses": [],
      "top5_sources": [
        "domains/TA/spec.md",
        "domains/TE/spec.md",
        "domains/TV/spec.md",
        "domains/TE/assumptions.md",
        "domains/TA/assumptions.md"
      ],
      "top5_similarities": [
        0.7568,
        0.7352,
        0.7534,
        0.7359,
        0.7245
      ],
      "fact_recall": 1.0,
      "fact_hits": [
        "TA",
        "TE",
        "TV",
        "TI"
      ],
      "fact_misses": [],
      "answer_preview": "The four Trial Design domains work together as layers of a unified study-design description: **TE** defines the building blocks, **TA** assembles them into treatment paths, **TV** schedules observations on those paths, and **TI** specifies who can enter the paths.\n\n- **TE (Trial Elements)** provides the fundamental time intervals — elements — each representing a discrete period with a specific purpose (e.g., screening, run‑in, treatment, washout). An element appears only once in TE and carries its start rule (`TESTRL`), end rule (`TEENRL`), and planned duration (`TEDUR`).  \n  **[Source: domain",
      "usage": {
        "prompt_tokens": 14473,
        "completion_tokens": 1652,
        "total_tokens": 16125
      },
      "model": "deepseek-v4-pro",
      "elapsed_s": 39.63
    },
    {
      "id": "q30",
      "category": "cross_domain",
      "question": "What is the CO (Comments) domain and how does it reference records in other SDTM domains? Describe the RDOMAIN and IDVAR mechanism.",
      "source_recall": 1.0,
      "source_hits": [
        "domains/CO/spec.md",
        "domains/CO/assumptions.md"
      ],
      "source_misses": [],
      "top5_sources": [
        "VARIABLE_INDEX.md",
        "domains/CO/spec.md",
        "chapters/ch08_relationships.md",
        "domains/CO/assumptions.md",
        "domains/CO/assumptions.md"
      ],
      "top5_similarities": [
        0.569,
        0.6492,
        0.6728,
        0.6876,
        0.7154
      ],
      "fact_recall": 1.0,
      "fact_hits": [
        "COVAL",
        "RDOMAIN",
        "IDVAR"
      ],
      "fact_misses": [],
      "answer_preview": "The **Comments (CO)** domain is an SDTM Special-purpose domain designed for submitting **free-text comments** that are not part of the structured data collected in other domains. It accommodates both comments collected alongside specific observations and unsolicited comments recorded on separate log pages. **[Source: domains/CO/assumptions.md – item_1; model/03_special_purpose_domains.md – Comments (CO)]**\n\nCO references records in other SDTM domains through three relationship variables:\n\n- **RDOMAIN** – the two‑character domain code of the **parent domain** (e.g., “AE”, “PE”, “VS”).  \n- **IDV",
      "usage": {
        "prompt_tokens": 15034,
        "completion_tokens": 1244,
        "total_tokens": 16278
      },
      "model": "deepseek-v4-pro",
      "elapsed_s": 25.29
    },
    {
      "id": "q31",
      "category": "cross_domain",
      "question": "How are the EC (Exposure as Collected) and EX (Exposure) domains different in purpose, and when should each be used?",
      "source_recall": 1.0,
      "source_hits": [
        "domains/EC/assumptions.md"
      ],
      "source_misses": [],
      "top5_sources": [
        "domains/EC/spec.md",
        "domains/EX/spec.md",
        "domains/EX/assumptions.md",
        "domains/EC/assumptions.md",
        "domains/EX/assumptions.md"
      ],
      "top5_similarities": [
        0.5814,
        0.5962,
        0.7328,
        0.7317,
        0.5907
      ],
      "fact_recall": 1.0,
      "fact_hits": [
        "collected",
        "EX",
        "EC"
      ],
      "fact_misses": [],
      "answer_preview": "Both the EC (Exposure as Collected) and EX (Exposure) domains are in the Interventions class and represent protocol-specified study treatment. The core difference is that **EC holds the data as it was originally collected**, while **EX holds the data after it has been standardized to the protocol-specified units**. EX is typically a derived dataset.\n\nThe method for deriving EX from EC and other sources must be described in the Define-XML document, and the relationship between the records can be documented using RELREC **[Source: domains/EX/assumptions.md item_5, domains/EC/assumptions.md item_",
      "usage": {
        "prompt_tokens": 14141,
        "completion_tokens": 1322,
        "total_tokens": 15463
      },
      "model": "deepseek-v4-pro",
      "elapsed_s": 30.52
    },
    {
      "id": "q32",
      "category": "cross_domain",
      "question": "How is VISIT and VISITNUM used consistently across observation-class domains, and what role does the SV (Subject Visits) domain play in tracking actual visit dates?",
      "source_recall": 1.0,
      "source_hits": [
        "domains/SV/spec.md",
        "domains/SV/assumptions.md"
      ],
      "source_misses": [],
      "top5_sources": [
        "VARIABLE_INDEX.md",
        "domains/SV/spec.md",
        "model/03_special_purpose_domains.md",
        "chapters/ch04_general_assumptions.md",
        "domains/SV/assumptions.md"
      ],
      "top5_similarities": [
        0.6554,
        0.6543,
        0.7044,
        0.6665,
        0.6646
      ],
      "fact_recall": 1.0,
      "fact_hits": [
        "VISIT",
        "VISITNUM",
        "SV"
      ],
      "fact_misses": [],
      "answer_preview": "VISIT and VISITNUM serve as **timing variables** that link each observation to a clinical encounter. Across the three general observation classes (Events, Interventions, Findings), these variables are used consistently to indicate which visit an observation belongs to. For planned visits, the valid values must be drawn from the Trial Visits (TV) dataset, ensuring that the same visit number–name pair means the same encounter in every domain. The Subject Visits (SV) domain acts as the central record of each subject’s actual visit timing, providing start/end dates and times, and it includes both ",
      "usage": {
        "prompt_tokens": 14248,
        "completion_tokens": 2413,
        "total_tokens": 16661
      },
      "model": "deepseek-v4-pro",
      "elapsed_s": 55.19
    },
    {
      "id": "q33",
      "category": "cross_domain",
      "question": "What is the RELSPEC domain and how does it define relationships between datasets at the study level, as opposed to RELREC which links individual records?",
      "source_recall": 1.0,
      "source_hits": [
        "domains/RELSPEC/spec.md"
      ],
      "source_misses": [],
      "top5_sources": [
        "domains/RELSPEC/spec.md",
        "domains/RELREC/spec.md",
        "domains/RELREC/assumptions.md",
        "chapters/ch08_relationships.md",
        "chapters/ch08_relationships.md"
      ],
      "top5_similarities": [
        0.5814,
        0.6533,
        0.7707,
        0.7621,
        0.7252
      ],
      "fact_recall": 1.0,
      "fact_hits": [
        "RELSPEC",
        "RELREC"
      ],
      "fact_misses": [],
      "answer_preview": "# RELSPEC Domain and Its Distinction from RELREC\n\n## What Is RELSPEC?\n\n**RELSPEC** (Related Specimens) is a special-purpose relationship dataset that **describes relationships between specimens**, enabling representation of specimen lineage—for example, tracing a parent specimen to its derived aliquots or processed specimens. Its structure is one record per specimen identifier per subject. **[Source: model/06_relationship_datasets.md]**\n\n### RELSPEC Variables\n\n| # | Variable | Label | Type | Role |\n|---|----------|-------|------|------|\n| 1 | STUDYID | Study Identifier | Char | Identifier |\n| ",
      "usage": {
        "prompt_tokens": 15456,
        "completion_tokens": 1774,
        "total_tokens": 17230
      },
      "model": "deepseek-v4-pro",
      "elapsed_s": 36.67
    },
    {
      "id": "q34",
      "category": "cross_domain",
      "question": "Which SDTM domains share the controlled terminology codelist for NY (No Yes Response, C66742), and what variable typically uses this codelist in those domains?",
      "source_recall": 1.0,
      "source_hits": [
        "VARIABLE_INDEX.md"
      ],
      "source_misses": [],
      "top5_sources": [
        "VARIABLE_INDEX.md",
        "terminology/core/general_part4.md",
        "chapters/ch04_general_assumptions.md",
        "chapters/ch04_general_assumptions.md",
        "model/01_concepts_and_terms.md"
      ],
      "top5_similarities": [
        0.4516,
        0.5903,
        0.6157,
        0.6351,
        0.5697
      ],
      "fact_recall": 1.0,
      "fact_hits": [
        "C66742",
        "NY"
      ],
      "fact_misses": [],
      "answer_preview": "### Domains explicitly documented as using C66742 (No Yes Response) in the retrieved context\n\nThe knowledge base directly records the use of codelist C66742 for the following domains and variables:\n\n| Domain | Variable(s) | Source |\n|--------|-------------|--------|\n| **SV** (Subject Visits) | SVPRESP, SVOCCUR, SVEPCHGI | domains/SV/spec.md, Controlled Terminology section |\n| **TM** (Trial Disease Milestones) | TMRPT | domains/TM/spec.md, Controlled Terminology section |\n\n### Additional pattern noted in general assumptions\n\nThe SDTMIG general assumptions state that **`--PRESP`** variables (the",
      "usage": {
        "prompt_tokens": 12806,
        "completion_tokens": 1561,
        "total_tokens": 14367
      },
      "model": "deepseek-v4-pro",
      "elapsed_s": 34.4
    },
    {
      "id": "q11",
      "category": "concept",
      "question": "What are the three observation classes in the SDTM model?",
      "source_recall": 1.0,
      "source_hits": [
        "model/02_observation_classes.md"
      ],
      "source_misses": [],
      "top5_sources": [
        "model/01_concepts_and_terms.md",
        "model/02_observation_classes.md",
        "chapters/ch04_general_assumptions.md",
        "chapters/ch04_general_assumptions.md",
        "terminology/supplementary/supplementary_part5.md"
      ],
      "top5_similarities": [
        0.5632,
        0.7205,
        0.5452,
        0.5352,
        0.5473
      ],
      "fact_recall": 1.0,
      "fact_hits": [
        "Interventions",
        "Events",
        "Findings"
      ],
      "fact_misses": [],
      "answer_preview": "The three general observation classes in the SDTM model are:\n\n1. **Interventions** — Represent investigational, therapeutic, and other treatments administered to or used by a subject with some actual or expected physiological effect. This includes treatments specified by the study protocol (i.e., \"exposure\"). **[Source: model/02_observation_classes.md §3.1.1]**\n\n2. **Events** — Represent occurrences that happen to a subject spontaneously. Most events data captured in clinical trials concerns medical events (e.g., adverse events, medical history, clinical events). **[Source: chapters/ch08_relat",
      "usage": {
        "prompt_tokens": 14737,
        "completion_tokens": 471,
        "total_tokens": 15208
      },
      "model": "deepseek-v4-pro",
      "elapsed_s": 10.24
    },
    {
      "id": "q12",
      "category": "concept",
      "question": "What do the Core designations Req, Exp, and Perm mean in SDTM?",
      "source_recall": 1.0,
      "source_hits": [
        "chapters/ch04"
      ],
      "source_misses": [],
      "top5_sources": [
        "chapters/ch04_general_assumptions.md",
        "VARIABLE_INDEX.md",
        "domains/SUPPQUAL/spec.md",
        "chapters/ch04_general_assumptions.md",
        "domains/CO/spec.md"
      ],
      "top5_similarities": [
        0.6571,
        0.5558,
        0.6055,
        5.7202,
        0.5926
      ],
      "fact_recall": 1.0,
      "fact_hits": [
        "Required",
        "Expected",
        "Permissible"
      ],
      "fact_misses": [],
      "answer_preview": "Based on the SDTMIG v3.4, the three Core designations are defined as follows **[Source: chapters/ch04_general_assumptions.md]**:\n\n| Core Value | Definition | Rule |\n|------------|------------|------|\n| **Req** (Required) | A variable that is basic to the identification of a data record (e.g., essential key variables and a topic variable) or is necessary to make the record meaningful. | Must always be included in the dataset and **cannot be null for any record**. |\n| **Exp** (Expected) | A variable necessary to make a record useful in the context of a specific domain. Expected variables may con",
      "usage": {
        "prompt_tokens": 13523,
        "completion_tokens": 523,
        "total_tokens": 14046
      },
      "model": "deepseek-v4-pro",
      "elapsed_s": 10.96
    },
    {
      "id": "q13",
      "category": "concept",
      "question": "What is the difference between Topic, Qualifier, and Identifier variable roles?",
      "source_recall": 1.0,
      "source_hits": [
        "model/01_concepts_and_terms.md"
      ],
      "source_misses": [],
      "top5_sources": [
        "model/01_concepts_and_terms.md",
        "model/06_relationship_datasets.md",
        "chapters/ch08_relationships.md",
        "chapters/ch04_general_assumptions.md",
        "domains/ML/assumptions.md"
      ],
      "top5_similarities": [
        0.4934,
        0.4564,
        0.4718,
        0.526,
        0.5227
      ],
      "fact_recall": 1.0,
      "fact_hits": [
        "Topic",
        "Qualifier",
        "Identifier"
      ],
      "fact_misses": [],
      "answer_preview": "**Identifier**, **Topic**, and **Qualifier** are three of the five major variable roles in SDTM. They differ in what they tell you about an observation (a row in a dataset):\n\n| Role | Purpose | Common Examples | Source |\n|------|---------|----------------|--------|\n| **Identifier** | Identifies the study, subject, domain, and sequence number of the record – *“Who or what is this record about?”* | `STUDYID`, `USUBJID`, `DOMAIN`, `--SEQ` | [1], [6] |\n| **Topic** | Specifies the focus of the observation – *“What is being observed?”* | `--TESTCD` (lab test), `--TRT` (intervention), `--TERM` (event",
      "usage": {
        "prompt_tokens": 15279,
        "completion_tokens": 1765,
        "total_tokens": 17044
      },
      "model": "deepseek-v4-pro",
      "elapsed_s": 35.08
    },
    {
      "id": "q14",
      "category": "concept",
      "question": "How should a sponsor create a new custom domain in SDTM?",
      "source_recall": 1.0,
      "source_hits": [
        "chapters/ch02"
      ],
      "source_misses": [],
      "top5_sources": [
        "chapters/ch04_general_assumptions.md",
        "chapters/ch02_fundamentals.md",
        "chapters/ch01_introduction.md",
        "chapters/ch04_general_assumptions.md",
        "chapters/ch03_submitting_data.md"
      ],
      "top5_similarities": [
        0.6011,
        0.4731,
        0.4777,
        0.4946,
        0.4894
      ],
      "fact_recall": 1.0,
      "fact_hits": [
        "observation class"
      ],
      "fact_misses": [],
      "answer_preview": "To create a new custom domain in SDTM, a sponsor should follow the process outlined in **SDTMIG Section 2.6** (Creating a New Domain). Key steps derivable from the provided context are:\n\n1. **Determine the observation class**  \n   First, assess the nature of the data:  \n   - An **Intervention** is something done to a subject that is expected to have a physiological effect.  \n   - An **Event** is something that happens to a subject spontaneously (typically a medical occurrence).  \n   - A **Finding** consists of measurements, tests, assessments, or examinations performed on the subject (or on a ",
      "usage": {
        "prompt_tokens": 15632,
        "completion_tokens": 2005,
        "total_tokens": 17637
      },
      "model": "deepseek-v4-pro",
      "elapsed_s": 41.07
    },
    {
      "id": "q15",
      "category": "concept",
      "question": "What are the three SDTM Core designation categories for variables, and what are the rules for handling a Permissible variable when a study did not collect the corresponding data item?",
      "source_recall": 1.0,
      "source_hits": [
        "chapters/ch04_general_assumptions.md"
      ],
      "source_misses": [],
      "top5_sources": [
        "chapters/ch04_general_assumptions.md",
        "chapters/ch01_introduction.md",
        "chapters/ch04_general_assumptions.md",
        "chapters/ch04_general_assumptions.md",
        "model/01_concepts_and_terms.md"
      ],
      "top5_similarities": [
        0.7806,
        0.6228,
        0.5995,
        0.5964,
        0.6896
      ],
      "fact_recall": 1.0,
      "fact_hits": [
        "Req",
        "Exp",
        "Perm"
      ],
      "fact_misses": [],
      "answer_preview": "The three SDTM Core designation categories, defined in the Core column of domain models, are **Required (Req)**, **Expected (Exp)**, and **Permissible (Perm)**. Their meanings and rules are as follows **[Source: chapters/ch04_general_assumptions.md]**:\n\n| Core Value   | Meaning                                                                                               | Rule                                                                                                                                                                                                                             ",
      "usage": {
        "prompt_tokens": 15955,
        "completion_tokens": 650,
        "total_tokens": 16605
      },
      "model": "deepseek-v4-pro",
      "elapsed_s": 13.15
    },
    {
      "id": "q35",
      "category": "concept",
      "question": "What is Controlled Terminology (CT) in SDTM and how does it constrain the values that variables can contain?",
      "source_recall": 1.0,
      "source_hits": [
        "chapters/ch04"
      ],
      "source_misses": [],
      "top5_sources": [
        "chapters/ch04_general_assumptions.md",
        "chapters/ch04_general_assumptions.md",
        "model/01_concepts_and_terms.md",
        "model/01_concepts_and_terms.md",
        "chapters/ch10_appendices.md"
      ],
      "top5_similarities": [
        0.607,
        0.6771,
        0.6231,
        0.5926,
        0.6137
      ],
      "fact_recall": 0.5,
      "fact_hits": [
        "codelist"
      ],
      "fact_misses": [
        "Controlled Terms"
      ],
      "answer_preview": "**Controlled Terminology (CT)** in SDTM is the set of standardized values (terms, codes, and external code systems) governed by CDISC Controlled Terminology that restrict the content a variable may contain. It ensures consistent data representation across studies and sponsors.\n\n### How CT constrains variable values\n- **Defining permissible values** – For a variable that lists a CT codelist, the study’s permissible value set is a defined collection of allowed terms. Only those terms (or a study‑specific subset drawn from the full codelist) may appear in that variable.  \n  **[Source: chapters/ch",
      "usage": {
        "prompt_tokens": 15427,
        "completion_tokens": 1523,
        "total_tokens": 16950
      },
      "model": "deepseek-v4-pro",
      "elapsed_s": 34.1
    },
    {
      "id": "q36",
      "category": "concept",
      "question": "What are the timing variables in SDTM (such as --DTC, --STDTC, --ENDTC) and how are they structured across domains?",
      "source_recall": 1.0,
      "source_hits": [
        "chapters/ch04"
      ],
      "source_misses": [],
      "top5_sources": [
        "chapters/ch04_general_assumptions.md",
        "model/01_concepts_and_terms.md",
        "chapters/ch04_general_assumptions.md",
        "model/02_observation_classes.md",
        "domains/BE/assumptions.md"
      ],
      "top5_similarities": [
        0.6533,
        0.7001,
        0.6573,
        0.6517,
        0.6647
      ],
      "fact_recall": 1.0,
      "fact_hits": [
        "DTC",
        "STDTC",
        "ENDTC",
        "Timing"
      ],
      "fact_misses": [],
      "answer_preview": "SDTM timing variables are defined in the model as part of the three general observation classes (Interventions, Events, Findings) and are shared by prefixing the two‑character domain code onto the variable root (the part after `--`). A small set of visit‑related variables are global and never prefixed.\n\n## Full Catalogue of Timing Variables (from SDTM v2.0)\n\nThe following 48 variables are available for any domain built on a general observation class. The table shows the variable root, label, data type, and any class‑level restrictions. (The complete list is in the model specification [4].)\n\n| ",
      "usage": {
        "prompt_tokens": 15393,
        "completion_tokens": 4559,
        "total_tokens": 19952
      },
      "model": "deepseek-v4-pro",
      "elapsed_s": 90.02
    },
    {
      "id": "q37",
      "category": "concept",
      "question": "What are the Special-Purpose datasets in SDTM and which domains fall into this category?",
      "source_recall": 1.0,
      "source_hits": [
        "model/03_special_purpose_domains.md"
      ],
      "source_misses": [],
      "top5_sources": [
        "model/01_concepts_and_terms.md",
        "model/02_observation_classes.md",
        "model/03_special_purpose_domains.md",
        "chapters/ch04_general_assumptions.md",
        "chapters/ch04_general_assumptions.md"
      ],
      "top5_similarities": [
        0.666,
        0.6624,
        0.657,
        0.5978,
        0.6636
      ],
      "fact_recall": 1.0,
      "fact_hits": [
        "Special-Purpose",
        "DM",
        "CO",
        "SE"
      ],
      "fact_misses": [],
      "answer_preview": "In SDTM, **Special-Purpose datasets** are domains that have standardized structures but do not belong to any of the three general observation classes (Interventions, Events, Findings). They represent subject‑level information that is essential for interpretation but does not fit the repeating‑observation pattern of the general observation classes.\n\nAccording to the SDTMIG v3.4 implementation (the version of the knowledge base), the following domains are classified as **Special Purpose**:\n\n| Domain | Name | Description (from dataset‑level metadata) |\n|--------|------|---------------------------",
      "usage": {
        "prompt_tokens": 16337,
        "completion_tokens": 4216,
        "total_tokens": 20553
      },
      "model": "deepseek-v4-pro",
      "elapsed_s": 84.98
    },
    {
      "id": "q38",
      "category": "concept",
      "question": "How are SDTM domain abbreviation codes assigned? What are the rules for the two-character domain code?",
      "source_recall": 1.0,
      "source_hits": [
        "chapters/ch02"
      ],
      "source_misses": [],
      "top5_sources": [
        "chapters/ch04_general_assumptions.md",
        "domains/SV/spec.md",
        "domains/FT/spec.md",
        "domains/EX/spec.md",
        "domains/IE/spec.md"
      ],
      "top5_similarities": [
        0.6759,
        0.6703,
        0.6691,
        0.6691,
        0.6689
      ],
      "fact_recall": 1.0,
      "fact_hits": [
        "two-character",
        "DOMAIN"
      ],
      "fact_misses": [],
      "answer_preview": "Standard domain abbreviation codes are assigned using the CDISC **SDTM Domain Abbreviation codelist** (C66734). Sponsors also have the option to create custom domains using codes that begin with the letters **X**, **Y**, or **Z**; any letter or number may be used for the second position **[Source: chapters/ch04_general_assumptions.md §4.1.6]**.\n\n**Two-character domain code rules**  \nThe two-character domain identifier is limited to:\n- First character: **A–Z** (uppercase letters only)\n- Second character: **A–Z** or **0–9** (no other characters)  \n\nThis restriction ensures compatibility with SAS",
      "usage": {
        "prompt_tokens": 10644,
        "completion_tokens": 1169,
        "total_tokens": 11813
      },
      "model": "deepseek-v4-pro",
      "elapsed_s": 21.43
    },
    {
      "id": "q39",
      "category": "concept",
      "question": "What is the Findings About observation class and how does it differ from the standard Findings class?",
      "source_recall": 1.0,
      "source_hits": [
        "model/02_observation_classes.md"
      ],
      "source_misses": [],
      "top5_sources": [
        "domains/BS/spec.md",
        "chapters/ch08_relationships.md",
        "domains/CP/spec.md",
        "model/02_observation_classes.md",
        "domains/CV/spec.md"
      ],
      "top5_similarities": [
        0.7123,
        16.7017,
        0.7123,
        15.7114,
        0.7123
      ],
      "fact_recall": 0.5,
      "fact_hits": [
        "Findings About"
      ],
      "fact_misses": [
        "FAOBJ"
      ],
      "answer_preview": "The **Findings About observation class** is a subtype of the Findings class used to record findings that are *about* an event (e.g., an adverse event) or an intervention (e.g., a concomitant medication). It extends the standard Findings model by adding the **`--OBJ`** variable, which identifies the event or intervention being assessed. **[Source: model/02_observation_classes.md, Findings About (Subtype)]**\n\n**Key differences from the standard Findings class:**\n\n| Aspect | Standard Findings | Findings About |\n|--------|-------------------|----------------|\n| **Topic definition** | `--TESTCD`/`-",
      "usage": {
        "prompt_tokens": 13621,
        "completion_tokens": 1048,
        "total_tokens": 14669
      },
      "model": "deepseek-v4-pro",
      "elapsed_s": 21.87
    },
    {
      "id": "q40",
      "category": "concept",
      "question": "What is the difference between collected data and derived data in SDTM, and how is the origin of a variable value indicated?",
      "source_recall": 1.0,
      "source_hits": [
        "chapters/ch04"
      ],
      "source_misses": [],
      "top5_sources": [
        "chapters/ch04_general_assumptions.md",
        "model/01_concepts_and_terms.md",
        "chapters/ch01_introduction.md",
        "model/06_relationship_datasets.md",
        "chapters/ch04_general_assumptions.md"
      ],
      "top5_similarities": [
        0.641,
        0.6331,
        0.5626,
        0.5606,
        0.5626
      ],
      "fact_recall": 1.0,
      "fact_hits": [
        "Collected",
        "Derived",
        "Origin"
      ],
      "fact_misses": [],
      "answer_preview": "Based on the provided context, here is the difference between collected and derived data in SDTM, and how the origin of a variable value is indicated.\n\n### Difference Between Collected and Derived Data\n\nThe context differentiates between these concepts based on *where* and *how* the data originates.\n\n- **Collected data** is information recorded directly from a source, such as on a Case Report Form (CRF), from a vendor, or from a device. The context provides a specific clarification: \"A value derived by a central lab according to its procedures is considered collected rather than derived.\" **[S",
      "usage": {
        "prompt_tokens": 17145,
        "completion_tokens": 1113,
        "total_tokens": 18258
      },
      "model": "deepseek-v4-pro",
      "elapsed_s": 23.25
    },
    {
      "id": "q41",
      "category": "concept",
      "question": "What are the Trial Design Model datasets in SDTM and what kind of study-level information do they capture?",
      "source_recall": 1.0,
      "source_hits": [
        "model/05_study_level_data.md"
      ],
      "source_misses": [],
      "top5_sources": [
        "model/01_concepts_and_terms.md",
        "chapters/ch04_general_assumptions.md",
        "model/05_study_level_data.md",
        "domains/TA/assumptions.md",
        "domains/TI/assumptions.md"
      ],
      "top5_similarities": [
        0.6589,
        0.66,
        0.8164,
        0.6195,
        0.6483
      ],
      "fact_recall": 1.0,
      "fact_hits": [
        "Trial Design",
        "TA",
        "TE",
        "TV"
      ],
      "fact_misses": [],
      "answer_preview": "Based on the provided context, the following **Trial Design Model datasets** and their captured study‑level information can be identified:\n\n| Dataset | Description | Source |\n|---------|-------------|--------|\n| **TA** (Trial Arms) | Captures the planned paths (arms) through the trial, combining epochs and arms into study cells. Each record represents an arm‑epoch assignment with associated treatment plans, branch rules, and transition logic. | [4], [12] |\n| **TE** (Trial Elements) | Defines the reusable building blocks (elements) of the trial design, including their codes, descriptions, and t",
      "usage": {
        "prompt_tokens": 16222,
        "completion_tokens": 2880,
        "total_tokens": 19102
      },
      "model": "deepseek-v4-pro",
      "elapsed_s": 58.07
    },
    {
      "id": "q16",
      "category": "mixed",
      "question": "What values are allowed for AESEV and what is its codelist code?",
      "source_recall": 1.0,
      "source_hits": [
        "domains/AE/spec.md",
        "terminology/core/ae.md"
      ],
      "source_misses": [],
      "top5_sources": [
        "terminology/core/ae.md",
        "domains/AE/assumptions.md",
        "domains/DM/examples.md",
        "domains/AE/spec.md",
        "chapters/ch04_general_assumptions.md"
      ],
      "top5_similarities": [
        0.3821,
        0.6134,
        8.5566,
        0.602,
        7.5799
      ],
      "fact_recall": 1.0,
      "fact_hits": [
        "C66769",
        "MILD",
        "MODERATE",
        "SEVERE"
      ],
      "fact_misses": [],
      "answer_preview": "**AESEV — Severity/Intensity of Adverse Event**\n\n- **Label:** Severity/Intensity  \n- **Type:** Char  \n- **Role:** Record Qualifier  \n- **Core:** Perm (Permissible)  \n- **Controlled Terms:** C66769 – Severity/Intensity Scale for Adverse Events  \n\n**Allowed Values (Codelist C66769)**\nThe codelist is **not extensible** (only the three values listed may be submitted).\n\n| CDISC Submission Value | Code   | CDISC Definition |\n|------------------------|--------|------------------|\n| MILD                   | C41338 | A type of adverse event that is usually transient and may require only minimal treatme",
      "usage": {
        "prompt_tokens": 15109,
        "completion_tokens": 754,
        "total_tokens": 15863
      },
      "model": "deepseek-v4-pro",
      "elapsed_s": 18.83
    },
    {
      "id": "q17",
      "category": "mixed",
      "question": "How are date and time variables formatted in SDTM and what suffix do they use?",
      "source_recall": 1.0,
      "source_hits": [
        "chapters/ch04"
      ],
      "source_misses": [],
      "top5_sources": [
        "chapters/ch04_general_assumptions.md",
        "model/01_concepts_and_terms.md",
        "chapters/ch04_general_assumptions.md",
        "chapters/ch04_general_assumptions.md",
        "chapters/ch01_introduction.md"
      ],
      "top5_similarities": [
        0.763,
        0.6154,
        0.6041,
        0.5795,
        9.6467
      ],
      "fact_recall": 0.5,
      "fact_hits": [
        "DTC"
      ],
      "fact_misses": [
        "ISO 8601"
      ],
      "answer_preview": "SDTM date/time variables are stored as **ISO 8601 extended‑format character strings**. The standard pattern is:\n\n`YYYY-MM-DDThh:mm:ss(.n+)?(((+|-)hh:mm)|Z)?`\n\n- Date components are separated by hyphens (`-`), time components by colons (`:`), and the letter `T` separates the date from the time.  \n- Fractional seconds and time‑zone offsets are optional.  \n- Spaces are **not** allowed anywhere in the representation.  \n- Missing components are indicated by right‑truncation (e.g., `2003-12` for December 2003) or by using a hyphen as a placeholder for intermediate missing parts (e.g., `2003---15` fo",
      "usage": {
        "prompt_tokens": 16805,
        "completion_tokens": 919,
        "total_tokens": 17724
      },
      "model": "deepseek-v4-pro",
      "elapsed_s": 20.19
    },
    {
      "id": "q18",
      "category": "mixed",
      "question": "Explain the MedDRA coding chain for adverse events from verbatim term to dictionary term.",
      "source_recall": 1.0,
      "source_hits": [
        "domains/AE/spec.md",
        "domains/AE/assumptions.md"
      ],
      "source_misses": [],
      "top5_sources": [
        "domains/AE/spec.md",
        "domains/AE/spec.md",
        "domains/AE/spec.md",
        "domains/AE/spec.md",
        "chapters/ch04_general_assumptions.md"
      ],
      "top5_similarities": [
        0.6135,
        0.5646,
        0.5637,
        0.5579,
        0.6726
      ],
      "fact_recall": 1.0,
      "fact_hits": [
        "AETERM",
        "AEMODIFY",
        "AEDECOD",
        "Preferred Term"
      ],
      "fact_misses": [],
      "answer_preview": "The MedDRA coding chain for adverse events links the originally collected verbatim description to a standard Preferred Term (PT) and, optionally, to the full MedDRA hierarchy. In SDTM the chain is captured by a series of related variables in the AE domain.\n\n**Step 1 – Verbatim term (AETERM)**  \nThe verbatim, investigator‑reported description of the event is stored in **AETERM** (Topic variable, Required). This is the “as‑collected” text before any coding action.  \n**[Source: domains/AE/spec.md – AETERM, [2]]**\n\n**Step 2 – Optional modification (AEMODIFY)**  \nIf the sponsor’s coding process all",
      "usage": {
        "prompt_tokens": 14218,
        "completion_tokens": 1731,
        "total_tokens": 15949
      },
      "model": "deepseek-v4-pro",
      "elapsed_s": 35.62
    },
    {
      "id": "q19",
      "category": "mixed",
      "question": "What controlled terminology codelist is used for DSDECOD when DSCAT equals 'DISPOSITION EVENT', and list specific CDISC Submission Values from that codelist for reasons of non-completion.",
      "source_recall": 1.0,
      "source_hits": [
        "domains/DS/assumptions.md",
        "terminology/core/disposition.md"
      ],
      "source_misses": [],
      "top5_sources": [
        "domains/DS/spec.md",
        "terminology/core/disposition.md",
        "domains/DS/assumptions.md",
        "domains/DS/assumptions.md",
        "domains/DS/spec.md"
      ],
      "top5_similarities": [
        0.8036,
        0.634,
        0.7554,
        0.7186,
        0.7248
      ],
      "fact_recall": 1.0,
      "fact_hits": [
        "NCOMPLT",
        "C66727"
      ],
      "fact_misses": [],
      "answer_preview": "Based on the provided context, here is the answer to your question:\n\nWhen `DSCAT` equals 'DISPOSITION EVENT', the controlled terminology codelist used for `DSDECOD` is the **Completion/Reason for Non-Completion (NCOMPLT)** codelist, which has the CDISC code **C66727**. **[Source: domains/DS/assumptions.md item_3, domains/DS/spec.md DSDECOD, domains/DS/spec.md Controlled Terminology]**\n\nThe context provided does not contain the full, official list of terms for the NCOMPLT (C66727) codelist. Only a few specific values can be confirmed from the non-completion subset:\n- **LOST TO FOLLOW-UP**: Conf",
      "usage": {
        "prompt_tokens": 11388,
        "completion_tokens": 836,
        "total_tokens": 12224
      },
      "model": "deepseek-v4-pro",
      "elapsed_s": 17.39
    },
    {
      "id": "q20",
      "category": "mixed",
      "question": "In the DM domain, what is the difference between the RFSTDTC/RFENDTC reference period pair and the RFXSTDTC/RFXENDTC pair, and under what circumstances will RFSTDTC be null?",
      "source_recall": 1.0,
      "source_hits": [
        "domains/DM/assumptions.md",
        "domains/DM/spec.md"
      ],
      "source_misses": [],
      "top5_sources": [
        "domains/DM/spec.md",
        "domains/DM/spec.md",
        "domains/DM/spec.md",
        "domains/DM/spec.md",
        "domains/DM/assumptions.md"
      ],
      "top5_similarities": [
        0.624,
        0.5839,
        0.55,
        0.547,
        0.6645
      ],
      "fact_recall": 0.5,
      "fact_hits": [
        "screen failure"
      ],
      "fact_misses": [
        "sponsor-defined"
      ],
      "answer_preview": "The DM domain contains two pairs of reference period dates that serve different purposes:\n\n### RFSTDTC / RFENDTC (Sponsor‑Defined Reference Period)\n- **Definition:** Sponsor‑defined, but **usually** represents the date/time of first and last study treatment exposure. The sponsor may customize this reference period for studies where treatment start is not the optimal anchor (e.g., studies with a washout period before randomization, or where a screening procedure is required) **[Source: domains/DM/assumptions.md – item_10.a]**.\n- **Usage:** RFSTDTC is the anchor for calculating study day variabl",
      "usage": {
        "prompt_tokens": 11931,
        "completion_tokens": 1885,
        "total_tokens": 13816
      },
      "model": "deepseek-v4-pro",
      "elapsed_s": 35.86
    },
    {
      "id": "q42",
      "category": "mixed",
      "question": "In the LB domain, how are normal ranges represented using LBORNRLO and LBORNRHI, and what is the LBNRIND variable used for?",
      "source_recall": 1.0,
      "source_hits": [
        "domains/LB/spec.md",
        "domains/LB/assumptions.md"
      ],
      "source_misses": [],
      "top5_sources": [
        "domains/LB/spec.md",
        "domains/LB/spec.md",
        "domains/LB/spec.md",
        "domains/LB/spec.md",
        "domains/LB/assumptions.md"
      ],
      "top5_similarities": [
        0.7713,
        0.6935,
        0.6933,
        0.6692,
        0.764
      ],
      "fact_recall": 1.0,
      "fact_hits": [
        "LBORNRLO",
        "LBORNRHI",
        "LBNRIND"
      ],
      "fact_misses": [],
      "answer_preview": "In LB, the lower and upper ends of a reference range in original units are captured in **LBORNRLO** (Reference Range Lower Limit in Orig Unit) and **LBORNRHI** (Reference Range Upper Limit in Orig Unit). Both are variable qualifiers (Core = Exp, no controlled terminology). Their CDISC Notes state:  \n> Should be populated only for continuous results.  \n**[Source: domains/LB/spec.md – LBORNRLO, LBORNRHI]**\n\nFor non‑continuous, descriptive tests (e.g., urine dipstick or color), LBORNRLO and LBORNRHI are left null; instead the reference range is supplied in **LBSTNRC** (Reference Range for Char Rs",
      "usage": {
        "prompt_tokens": 12809,
        "completion_tokens": 985,
        "total_tokens": 13794
      },
      "model": "deepseek-v4-pro",
      "elapsed_s": 20.48
    },
    {
      "id": "q43",
      "category": "mixed",
      "question": "What is the controlled terminology codelist for the SEX variable in the DM domain? Provide the codelist code and describe the Core designation.",
      "source_recall": 1.0,
      "source_hits": [
        "domains/DM/spec.md"
      ],
      "source_misses": [],
      "top5_sources": [
        "domains/DM/spec.md",
        "terminology/core/dm.md",
        "chapters/ch04_general_assumptions.md",
        "domains/DM/spec.md",
        "chapters/ch04_general_assumptions.md"
      ],
      "top5_similarities": [
        0.6578,
        0.5551,
        0.633,
        0.6311,
        0.5852
      ],
      "fact_recall": 1.0,
      "fact_hits": [
        "SEX",
        "C66731",
        "Req"
      ],
      "fact_misses": [],
      "answer_preview": "The controlled terminology codelist for the `SEX` variable in the DM domain is **C66731 (Sex)**.  \n\nThe Core designation for `SEX` is **Req** (Required).  \n\n**Sources:**  \n- Domain specification: `SEX` has Controlled Terms `C66731` and Core `Req` **[Source: domains/DM/spec.md]**  \n- Controlled Terminology cross-reference: `SEX` maps to `Sex (C66731)` **[Source: domains/DM/spec.md – Controlled Terminology]**  \n- Codelist details: `C66731` defines the Sex codelist with values F, M, U, UNDIFFERENTIATED **[Source: terminology/core/dm.md]**",
      "usage": {
        "prompt_tokens": 12080,
        "completion_tokens": 361,
        "total_tokens": 12441
      },
      "model": "deepseek-v4-pro",
      "elapsed_s": 7.07
    },
    {
      "id": "q44",
      "category": "mixed",
      "question": "In the VS domain, what is the controlled terminology codelist code for VSTESTCD, and give examples of standard vital signs test codes like systolic and diastolic blood pressure.",
      "source_recall": 1.0,
      "source_hits": [
        "domains/VS/spec.md"
      ],
      "source_misses": [],
      "top5_sources": [
        "domains/VS/spec.md",
        "terminology/core/vs.md",
        "domains/VS/spec.md",
        "domains/VS/spec.md",
        "VARIABLE_INDEX.md"
      ],
      "top5_similarities": [
        0.7284,
        0.4981,
        0.6737,
        0.6183,
        0.5512
      ],
      "fact_recall": 1.0,
      "fact_hits": [
        "C66741",
        "SYSBP",
        "DIABP"
      ],
      "fact_misses": [],
      "answer_preview": "The controlled terminology codelist used for VSTESTCD in the VS domain is **C66741** (Vital Signs Test Code) **[Source: domains/VS/spec.md – VSTESTCD]**. This codelist is extensible and is defined in the Vital Signs terminology **[Source: terminology/core/vs.md – Vital Signs Test Code (C66741)]**.\n\nStandard vital signs test codes from this codelist include:\n\n- **SYSBP** — Systolic Blood Pressure (shown in the VS example dataset) **[Source: domains/VS/examples.md – Example 1]**\n- **DIABP** — Diastolic Blood Pressure (NCI concept code C25299; also shown in the example) **[Source: terminology/cor",
      "usage": {
        "prompt_tokens": 14663,
        "completion_tokens": 1037,
        "total_tokens": 15700
      },
      "model": "deepseek-v4-pro",
      "elapsed_s": 18.67
    },
    {
      "id": "q45",
      "category": "mixed",
      "question": "What is the RACE variable in the DM domain, what codelist does it use, and what is its Core designation?",
      "source_recall": 1.0,
      "source_hits": [
        "domains/DM/spec.md"
      ],
      "source_misses": [],
      "top5_sources": [
        "domains/DM/spec.md",
        "terminology/core/dm.md",
        "domains/DM/examples.md",
        "domains/DM/examples.md",
        "domains/DM/assumptions.md"
      ],
      "top5_similarities": [
        0.6135,
        0.469,
        0.5662,
        0.5707,
        0.6038
      ],
      "fact_recall": 1.0,
      "fact_hits": [
        "RACE",
        "C74457",
        "Exp"
      ],
      "fact_misses": [],
      "answer_preview": "The **RACE** variable in the DM domain is defined as follows:\n\n- **Label:** Race  \n- **Type:** Char  \n- **Role:** Record Qualifier  \n- **Core:** **Exp** (Expected)  \n- **Controlled Terms:** Code **C74457** (Race codelist)  \n\nThe _Race_ codelist (C74457) contains the following submission values:  \nAMERICAN INDIAN OR ALASKA NATIVE, ASIAN, BLACK OR AFRICAN AMERICAN, NATIVE HAWAIIAN OR OTHER PACIFIC ISLANDER, NOT REPORTED, OTHER, UNKNOWN, WHITE (and is non-extensible). **[Source: [1] domains/DM/spec.md line RACE; [2] terminology/core/dm.md section \"Race (C74457)\"]**",
      "usage": {
        "prompt_tokens": 16188,
        "completion_tokens": 522,
        "total_tokens": 16710
      },
      "model": "deepseek-v4-pro",
      "elapsed_s": 10.54
    },
    {
      "id": "q46",
      "category": "mixed",
      "question": "What is the AEOUT (Outcome of Adverse Event) variable in the AE domain and what controlled terminology codelist code does it use?",
      "source_recall": 1.0,
      "source_hits": [
        "domains/AE/spec.md"
      ],
      "source_misses": [],
      "top5_sources": [
        "domains/AE/spec.md",
        "terminology/core/ae.md",
        "domains/AE/spec.md",
        "VARIABLE_INDEX.md",
        "domains/AE/assumptions.md"
      ],
      "top5_similarities": [
        0.7992,
        0.5706,
        0.6583,
        0.6157,
        0.7025
      ],
      "fact_recall": 1.0,
      "fact_hits": [
        "AEOUT",
        "C66768",
        "Perm"
      ],
      "fact_misses": [],
      "answer_preview": "**AEOUT** (Order 36) is a Record Qualifier variable in the AE domain. Its definition from the SDTMIG v3.4 specification:\n\n- **Label:** Outcome of Adverse Event  \n- **Type:** Char  \n- **Role:** Record Qualifier  \n- **Core:** Perm (permissible)  \n- **CDISC Notes:** “Description of the outcome of an event.”  \n- **Controlled Terms:** The variable uses the codelist **C66768** (Outcome of Event).  \n\nThe codelist **C66768** is not extensible and contains the following submission values [**Source: terminology/core/ae.md**]:\n\n| Code   | CDISC Submission Value             |\n|--------|-------------------",
      "usage": {
        "prompt_tokens": 14861,
        "completion_tokens": 677,
        "total_tokens": 15538
      },
      "model": "deepseek-v4-pro",
      "elapsed_s": 14.46
    },
    {
      "id": "q47",
      "category": "mixed",
      "question": "How do QS (Questionnaires) domains handle instrument-specific variables using QSCAT, and what role does QSTESTCD play in organizing question-level data?",
      "source_recall": 1.0,
      "source_hits": [
        "domains/QS/spec.md",
        "domains/QS/assumptions.md"
      ],
      "source_misses": [],
      "top5_sources": [
        "VARIABLE_INDEX.md",
        "domains/QS/spec.md",
        "chapters/ch04_general_assumptions.md",
        "chapters/ch08_relationships.md",
        "domains/SUPPQUAL/examples.md"
      ],
      "top5_similarities": [
        0.6339,
        0.6923,
        0.6635,
        0.5798,
        0.6612
      ],
      "fact_recall": 1.0,
      "fact_hits": [
        "QSTESTCD",
        "QSCAT",
        "Topic"
      ],
      "fact_misses": [],
      "answer_preview": "The QS (Questionnaires) domain uses **QSCAT** as the primary grouping mechanism to distinguish one instrument from another, and **QSTESTCD** as the topic variable that identifies each individual question within that instrument.\n\n### QSCAT – Identifying the Instrument\n- **Label:** Category of Question  \n- **Role:** Grouping Qualifier  \n- **Core:** Required  \n- **Controlled Terms:** C100129 (Category of Questionnaire)  \n- **Purpose:** The value in `QSCAT` specifies which questionnaire was administered. For example, values such as `\"ADAS-COG\"` or `\"MDS-UPDRS\"` group all questions belonging to a p",
      "usage": {
        "prompt_tokens": 16473,
        "completion_tokens": 1654,
        "total_tokens": 18127
      },
      "model": "deepseek-v4-pro",
      "elapsed_s": 37.64
    },
    {
      "id": "q48",
      "category": "mixed",
      "question": "What is the FATESTCD variable's controlled terminology codelist code in the FA domain, and give examples of standard FA test codes?",
      "source_recall": 1.0,
      "source_hits": [
        "domains/FA/spec.md"
      ],
      "source_misses": [],
      "top5_sources": [
        "domains/FA/spec.md",
        "terminology/core/findings_about.md",
        "domains/FA/assumptions.md",
        "domains/FA/spec.md",
        "chapters/ch04_general_assumptions.md"
      ],
      "top5_similarities": [
        0.678,
        0.4042,
        0.6327,
        0.6766,
        0.5692
      ],
      "fact_recall": 1.0,
      "fact_hits": [
        "FATESTCD",
        "C101832"
      ],
      "fact_misses": [],
      "answer_preview": "The FATESTCD variable in the FA domain uses the codelist **Findings About Test Code (C101832)**. This is specified in the FA domain's variable specification table:\n\n> **FATESTCD**  \n> Controlled Terms: C101832 [**Source: domains/FA/spec.md**]\n\nThe codelist is extensible and contains many standard test codes. Examples of standard FA test codes taken directly from the codelist include:\n\n- **SEV** – Severity/Intensity (used when the assessment represents a point-in-time severity, as opposed to the event-level --SEV variable) [**Source: terminology/core/findings_about.md, domains/FA/assumptions.md",
      "usage": {
        "prompt_tokens": 15664,
        "completion_tokens": 871,
        "total_tokens": 16535
      },
      "model": "deepseek-v4-pro",
      "elapsed_s": 15.67
    },
    {
      "id": "s01",
      "category": "single_domain",
      "question": "In the DM domain, what is the controlled terminology codelist code for the SEX variable, and what are its four permitted submission values?",
      "source_recall": 1.0,
      "source_hits": [
        "terminology/core/dm.md",
        "domains/DM/spec.md"
      ],
      "source_misses": [],
      "top5_sources": [
        "domains/DM/spec.md",
        "terminology/core/dm.md",
        "domains/DM/assumptions.md",
        "domains/DM/spec.md",
        "chapters/ch04_general_assumptions.md"
      ],
      "top5_similarities": [
        0.6528,
        0.5864,
        0.556,
        0.5862,
        0.5688
      ],
      "fact_recall": 1.0,
      "fact_hits": [
        "C66731",
        "F",
        "M",
        "U",
        "UNDIFFERENTIATED"
      ],
      "fact_misses": [],
      "answer_preview": "The SEX variable in the DM domain is associated with controlled terminology codelist **C66731** (Sex) **[Source: domains/DM/spec.md]**.  \n\nThe four permitted submission values (CDISC Submission Value) are:\n\n- **F** (Female)\n- **M** (Male)\n- **U** (Unknown, also synonyms UNK, Unknown)\n- **UNDIFFERENTIATED**  \n\n**[Source: terminology/core/dm.md]**",
      "usage": {
        "prompt_tokens": 13898,
        "completion_tokens": 410,
        "total_tokens": 14308
      },
      "model": "deepseek-v4-pro",
      "elapsed_s": 10.45
    },
    {
      "id": "s02",
      "category": "concept",
      "question": "What is the SUPPQUAL variable QNAM and what character constraints apply to it? What is the maximum length and what characters are allowed?",
      "source_recall": 1.0,
      "source_hits": [
        "domains/SUPPQUAL/spec.md",
        "model/06_relationship_datasets.md"
      ],
      "source_misses": [],
      "top5_sources": [
        "domains/SUPPQUAL/spec.md",
        "domains/SUPPQUAL/spec.md",
        "domains/SUPPQUAL/spec.md",
        "domains/SUPPQUAL/spec.md",
        "chapters/ch04_general_assumptions.md"
      ],
      "top5_similarities": [
        0.6726,
        0.6267,
        0.5758,
        0.4786,
        0.5437
      ],
      "fact_recall": 1.0,
      "fact_hits": [
        "QNAM",
        "8 characters",
        "letters, numbers, or underscores",
        "cannot start with a number",
        "Qualifier Variable Name"
      ],
      "fact_misses": [],
      "answer_preview": "**QNAM** is the **Qualifier Variable Name** variable in SUPPQUAL (Supplemental Qualifiers) datasets. It serves as the short name that identifies a non-standard variable (supplemental qualifier) being added to a parent domain record. It functions analogously to `--TESTCD` in Findings domains but within the SUPP-- structure. \n\n**Source: domains/SUPPQUAL/spec.md** | **Source: chapters/ch08_relationships.md** | **Source: VARIABLE_INDEX.md**\n\n**Label:** Qualifier Variable Name\n**Type:** Char\n**Role:** Topic\n**Core:** Req\n**Controlled Terms:** *(None listed in standard, but subject to naming guideli",
      "usage": {
        "prompt_tokens": 15171,
        "completion_tokens": 976,
        "total_tokens": 16147
      },
      "model": "deepseek-v4-pro",
      "elapsed_s": 18.43
    },
    {
      "id": "s03",
      "category": "cross_domain",
      "question": "The DM variable RFXSTDTC is defined as equal to the earliest value of which variable in the EX domain? Similarly, RFXENDTC is equal to the latest value of which EX variable (or which fallback variable if that is not collected)?",
      "source_recall": 1.0,
      "source_hits": [
        "domains/DM/spec.md",
        "domains/EX/spec.md"
      ],
      "source_misses": [],
      "top5_sources": [
        "domains/DM/spec.md",
        "domains/EX/spec.md",
        "domains/DM/assumptions.md",
        "domains/DM/spec.md",
        "domains/DM/spec.md"
      ],
      "top5_similarities": [
        0.6568,
        0.5803,
        0.6371,
        0.6269,
        0.5537
      ],
      "fact_recall": 1.0,
      "fact_hits": [
        "EXSTDTC",
        "RFXSTDTC",
        "EXENDTC",
        "RFXENDTC",
        "earliest",
        "latest"
      ],
      "fact_misses": [],
      "answer_preview": "Based on the DM domain specification:\n\n- **RFXSTDTC** is defined as equal to the earliest value of **EXSTDTC** in the EX domain. **[Source: domains/DM/spec.md § RFXSTDTC]**\n\n- **RFXENDTC** is defined as equal to the latest value of **EXENDTC** in the EX domain. If EXENDTC was not collected or is missing, the fallback is the latest value of **EXSTDTC**. **[Source: domains/DM/spec.md § RFXENDTC]**\n\nAdditional context from the EX domain assumptions explains why EXSTDTC serves as the fallback for EXENDTC: \"For administrations considered given at a point in time (e.g., oral tablet, pre-filled syrin",
      "usage": {
        "prompt_tokens": 14424,
        "completion_tokens": 511,
        "total_tokens": 14935
      },
      "model": "deepseek-v4-pro",
      "elapsed_s": 10.44
    },
    {
      "id": "s04",
      "category": "mixed",
      "question": "In the AE domain, what is the controlled terminology codelist code for the AEACN (Action Taken with Study Treatment) variable, and what ICH E2B example values does the CDISC Notes field list for this variable?",
      "source_recall": 1.0,
      "source_hits": [
        "domains/AE/spec.md",
        "terminology/core/ae.md"
      ],
      "source_misses": [],
      "top5_sources": [
        "domains/AE/spec.md",
        "terminology/core/ae.md",
        "domains/AE/spec.md",
        "domains/AE/assumptions.md",
        "domains/AE/spec.md"
      ],
      "top5_similarities": [
        0.7623,
        0.5455,
        0.681,
        0.676,
        0.6262
      ],
      "fact_recall": 1.0,
      "fact_hits": [
        "C66767",
        "DRUG WITHDRAWN",
        "DOSE REDUCED",
        "DOSE INCREASED",
        "DOSE NOT CHANGED",
        "UNKNOWN",
        "NOT APPLICABLE"
      ],
      "fact_misses": [],
      "answer_preview": "Based on the AE domain specification, here are the details for the AEACN variable:\n\n*   **Controlled Terminology Codelist Code:** The codelist code for AEACN is **C66767**. **[Source: [1] domains/AE/spec.md]**\n*   **ICH E2B Example Values:** According to the CDISC Notes, the examples include the values: **\"DRUG WITHDRAWN\"**, **\"DOSE REDUCED\"**, **\"DOSE INCREASED\"**, **\"DOSE NOT CHANGED\"**, **\"UNKNOWN\"**, and **\"NOT APPLICABLE\"**. **[Source: [1] domains/AE/spec.md]**",
      "usage": {
        "prompt_tokens": 13906,
        "completion_tokens": 823,
        "total_tokens": 14729
      },
      "model": "deepseek-v4-pro",
      "elapsed_s": 14.95
    },
    {
      "id": "s05",
      "category": "single_domain",
      "question": "In the VS domain, what is the controlled terminology codelist code for the VSTESTCD variable? Name the codelist, state whether it is extensible, and give three example TESTCD values listed for blood pressure and heart rate.",
      "source_recall": 1.0,
      "source_hits": [
        "domains/VS/spec.md",
        "terminology/core/vs.md"
      ],
      "source_misses": [],
      "top5_sources": [
        "domains/VS/spec.md",
        "terminology/core/vs.md",
        "chapters/ch04_general_assumptions.md",
        "chapters/ch04_general_assumptions.md",
        "domains/IS/assumptions.md"
      ],
      "top5_similarities": [
        0.6639,
        0.4761,
        0.5932,
        0.5578,
        0.5883
      ],
      "fact_recall": 0.8333,
      "fact_hits": [
        "C66741",
        "Vital Signs Test Code",
        "SYSBP",
        "DIABP",
        "HR"
      ],
      "fact_misses": [
        "Extensible: Yes"
      ],
      "answer_preview": "Based on the provided context, here are the details for the VSTESTCD variable's controlled terminology:\n\n**Controlled Terminology Codelist Code:** C66741\n**Codelist Name:** Vital Signs Test Code\n**Extensibility:** The provided context does not explicitly state whether codelist C66741 is extensible. You must confirm this in the full terminology file. However, CDISC codelists for topic variables like `--TESTCD` are generally non-extensible. **[Source: domains/VS/spec.md -- Controlled Terminology]**\n\nHere are three example TESTCD values for blood pressure and heart rate listed in the VS example d",
      "usage": {
        "prompt_tokens": 13783,
        "completion_tokens": 526,
        "total_tokens": 14309
      },
      "model": "deepseek-v4-pro",
      "elapsed_s": 12.46
    },
    {
      "id": "q54",
      "category": "single_domain",
      "question": "In the DV (Protocol Deviations) domain, which observation class does it belong to and what is the Topic variable DVTERM?",
      "source_recall": 1.0,
      "source_hits": [
        "domains/DV/spec.md"
      ],
      "source_misses": [],
      "top5_sources": [
        "domains/DV/spec.md",
        "domains/DV/spec.md",
        "domains/DV/spec.md",
        "domains/DV/spec.md",
        "domains/DV/assumptions.md"
      ],
      "top5_similarities": [
        0.7536,
        0.664,
        0.6494,
        0.5789,
        0.7551
      ],
      "fact_recall": 1.0,
      "fact_hits": [
        "Events",
        "DVTERM",
        "Protocol Deviation Term",
        "Topic"
      ],
      "fact_misses": [],
      "answer_preview": "The DV (Protocol Deviations) domain belongs to the **Events** observation class. **[Source: VARIABLE_INDEX.md]**, **[Source: domains/DV/assumptions.md item_1]**\n\nIn this domain, the topic variable is **DVTERM**. Its specification is:\n\n- **Label:** Protocol Deviation Term\n- **Type:** Char\n- **Role:** Topic\n- **Core:** Req\n- **CDISC Notes:** Verbatim name of the protocol deviation criterion (e.g., \"IVRS PROCESS DEVIATION - NO DOSE CALL PERFORMED\"). DVTERM values map to the controlled terminology in DVDECOD. **[Source: domains/DV/spec.md]**\n\nThus, DVTERM is the event topic variable that records t",
      "usage": {
        "prompt_tokens": 13249,
        "completion_tokens": 477,
        "total_tokens": 13726
      },
      "model": "deepseek-v4-pro",
      "elapsed_s": 10.48
    },
    {
      "id": "q55",
      "category": "single_domain",
      "question": "What is the structure and observation class of the DS (Disposition) domain, and what is the role of the DSTERM variable?",
      "source_recall": 1.0,
      "source_hits": [
        "domains/DS/spec.md"
      ],
      "source_misses": [],
      "top5_sources": [
        "domains/DS/spec.md",
        "domains/DS/spec.md",
        "domains/DS/spec.md",
        "domains/DS/spec.md",
        "domains/DS/assumptions.md"
      ],
      "top5_similarities": [
        0.6292,
        0.5718,
        0.544,
        0.5266,
        0.5828
      ],
      "fact_recall": 1.0,
      "fact_hits": [
        "Events",
        "DSTERM",
        "Topic",
        "disposition"
      ],
      "fact_misses": [],
      "answer_preview": "## DS (Disposition) Domain: Structure and Observation Class\n\nThe **DS domain belongs to the Events General Observation Class**. The concept map in the SDTM model shows DS as part of the \"Events Domains\" subset, which is a subtype of the \"General Observation Class Domains\" **[Source: model/01_concepts_and_terms.md]**. Furthermore, the DS assumptions document confirms that DS is treated as a general observation-class domain, noting that \"EPOCH may be included as a timing variable as in other general observation-class domains\" **[Source: domains/DS/assumptions.md]**.\n\nDS is structured as a flat f",
      "usage": {
        "prompt_tokens": 14421,
        "completion_tokens": 1115,
        "total_tokens": 15536
      },
      "model": "deepseek-v4-pro",
      "elapsed_s": 21.32
    },
    {
      "id": "q56",
      "category": "single_domain",
      "question": "In the SU (Substance Use) domain, what observation class is it and what is the SUTRT variable?",
      "source_recall": 1.0,
      "source_hits": [
        "domains/SU/spec.md"
      ],
      "source_misses": [],
      "top5_sources": [
        "domains/SU/spec.md",
        "domains/SU/spec.md",
        "domains/SU/spec.md",
        "domains/SU/spec.md",
        "VARIABLE_INDEX.md"
      ],
      "top5_similarities": [
        0.6606,
        0.6408,
        0.6341,
        0.6277,
        0.6706
      ],
      "fact_recall": 1.0,
      "fact_hits": [
        "Interventions",
        "SUTRT",
        "Reported Name of Substance",
        "Topic"
      ],
      "fact_misses": [],
      "answer_preview": "The SU (Substance Use) domain belongs to the **Interventions** observation class **[Source: VARIABLE_INDEX.md – SU — Substance Use (Interventions)]**.\n\nThe **SUTRT** variable is defined as follows:\n\n- **Label:** Reported Name of Substance  \n- **Type:** Char  \n- **Role:** Topic  \n- **Core:** Req  \n- **Controlled Terms:** None (free‑text or prespecified substance name)  \n- **CDISC Notes:** “Substance name. Examples: ‘CIGARETTES’, ‘COFFEE’.” **[Source: domains/SU/spec.md – SUTRT]**  \n\nIn practice, SUTRT captures the verbatim or prespecified text collected for the substance and is the topic variab",
      "usage": {
        "prompt_tokens": 12451,
        "completion_tokens": 642,
        "total_tokens": 13093
      },
      "model": "deepseek-v4-pro",
      "elapsed_s": 12.37
    },
    {
      "id": "q57",
      "category": "single_domain",
      "question": "What is the PR (Procedures) domain used for, and what is the PRTRT topic variable along with its Core designation?",
      "source_recall": 1.0,
      "source_hits": [
        "domains/PR/spec.md"
      ],
      "source_misses": [],
      "top5_sources": [
        "domains/PR/spec.md",
        "domains/PR/spec.md",
        "domains/PR/spec.md",
        "domains/PR/spec.md",
        "domains/PR/examples.md"
      ],
      "top5_similarities": [
        0.7274,
        0.6198,
        0.6094,
        0.6051,
        0.5826
      ],
      "fact_recall": 1.0,
      "fact_hits": [
        "Interventions",
        "PRTRT",
        "Reported Name of Procedure",
        "Req"
      ],
      "fact_misses": [],
      "answer_preview": "Based on the provided context, here is the information about the PR domain and the PRTRT variable:\n\n### Purpose of the PR (Procedures) Domain\n\nThe Procedures domain is used to represent details about procedures performed, regardless of the extent of physiological effect or whether the data was specifically collected in the study. It is based on the Interventions observation class. Examples of procedures include disease screening, endoscopic examinations, diagnostic tests, therapeutic procedures, and surgical procedures. Measurements obtained from these procedures are represented in their respe",
      "usage": {
        "prompt_tokens": 14455,
        "completion_tokens": 434,
        "total_tokens": 14889
      },
      "model": "deepseek-v4-pro",
      "elapsed_s": 10.14
    },
    {
      "id": "q58",
      "category": "single_domain",
      "question": "Describe the TS (Trial Summary) domain structure and the TSPARMCD variable, including its controlled terminology codelist code and length limit.",
      "source_recall": 1.0,
      "source_hits": [
        "domains/TS/spec.md"
      ],
      "source_misses": [],
      "top5_sources": [
        "domains/TS/spec.md",
        "terminology/core/trial_design.md",
        "VARIABLE_INDEX.md",
        "model/05_study_level_data.md",
        "domains/TS/assumptions.md"
      ],
      "top5_similarities": [
        0.7561,
        0.5199,
        0.715,
        0.5921,
        0.6527
      ],
      "fact_recall": 1.0,
      "fact_hits": [
        "Trial Summary",
        "TSPARMCD",
        "C66738",
        "8 characters"
      ],
      "fact_misses": [],
      "answer_preview": "The **Trial Summary (TS)** domain is a **Trial Design** dataset that provides a structured representation of trial characteristics — both planned and actual — in a parameter–value format. Each record describes one trial summary parameter (e.g., minimum age, phase, title). The domain belongs to the Trial Design Model (TDM) and is introduced alongside Trial Inclusion/Exclusion Criteria (TI) in SDTMIG §7.4.  \n\n### TS Domain Variables\nThe standard TS domain contains the following variables **[Source: domains/TS/spec.md via VARIABLE_INDEX.md §TS]**:\n\n| Variable  | Label                             ",
      "usage": {
        "prompt_tokens": 12530,
        "completion_tokens": 1252,
        "total_tokens": 13782
      },
      "model": "deepseek-v4-pro",
      "elapsed_s": 22.63
    },
    {
      "id": "q59",
      "category": "single_domain",
      "question": "In the DD (Death Details) domain, what is the DDTESTCD variable and its controlled terminology codelist code?",
      "source_recall": 1.0,
      "source_hits": [
        "domains/DD/spec.md"
      ],
      "source_misses": [],
      "top5_sources": [
        "domains/DD/spec.md",
        "terminology/core/other_part4.md",
        "domains/DD/spec.md",
        "VARIABLE_INDEX.md",
        "domains/DD/spec.md"
      ],
      "top5_similarities": [
        0.766,
        0.6055,
        0.7584,
        0.6406,
        0.7599
      ],
      "fact_recall": 1.0,
      "fact_hits": [
        "DDTESTCD",
        "C116108",
        "Topic"
      ],
      "fact_misses": [],
      "answer_preview": "Based on the provided context, here are the details for the `DDTESTCD` variable in the Death Details (DD) domain:\n\n- **Variable:** DDTESTCD\n- **Label:** Death Detail Assessment Short Name\n- **Type:** Char\n- **Role:** Topic\n- **Core:** Req\n- **Controlled Terms:** C116108\n\nThe controlled terminology codelist for DDTESTCD is **C116108** (SDTM Death Diagnosis and Details Test Code), which is an extensible codelist **[Source: domains/DD/spec.md]**. Examples of terms within this codelist include:\n\n| Code   | CDISC Submission Value | CDISC Definition |\n|--------|------------------------|-------------",
      "usage": {
        "prompt_tokens": 12162,
        "completion_tokens": 631,
        "total_tokens": 12793
      },
      "model": "deepseek-v4-pro",
      "elapsed_s": 13.41
    },
    {
      "id": "q60",
      "category": "single_domain",
      "question": "What is the CE (Clinical Events) domain, which observation class does it belong to, and what is the CETERM variable?",
      "source_recall": 1.0,
      "source_hits": [
        "domains/CE/spec.md"
      ],
      "source_misses": [],
      "top5_sources": [
        "domains/CE/spec.md",
        "domains/CE/spec.md",
        "domains/CE/spec.md",
        "domains/CE/spec.md",
        "VARIABLE_INDEX.md"
      ],
      "top5_similarities": [
        0.6749,
        0.6509,
        0.6345,
        0.6182,
        0.6815
      ],
      "fact_recall": 1.0,
      "fact_hits": [
        "Events",
        "CETERM",
        "Topic",
        "Clinical Event"
      ],
      "fact_misses": [],
      "answer_preview": "The **CE (Clinical Events)** domain is used for events of clinical interest that are **not** considered adverse events (AEs) per protocol. This includes prespecified events tracked as efficacy endpoints, episodes of disease-under-study symptoms, or events that may lead to an AE but are not AEs themselves (e.g., in a vaccine trial, certain signs/symptoms). **[Source: domains/CE/assumptions.md item 1]**\n\n**Observation Class:**  \nCE belongs to the **Events** general observation class. **[Source: VARIABLE_INDEX.md header for CE; INDEX.md lists CE under Events Domains; model/02_observation_classes.",
      "usage": {
        "prompt_tokens": 17052,
        "completion_tokens": 728,
        "total_tokens": 17780
      },
      "model": "deepseek-v4-pro",
      "elapsed_s": 14.56
    },
    {
      "id": "q61",
      "category": "single_domain",
      "question": "In the MB (Microbiology Specimen) domain, what is the MBTESTCD variable, what observation class is MB, and what is the codelist code for MBTESTCD?",
      "source_recall": 1.0,
      "source_hits": [
        "domains/MB/spec.md"
      ],
      "source_misses": [],
      "top5_sources": [
        "domains/MB/spec.md",
        "terminology/core/microbiology_part2.md",
        "domains/MB/assumptions.md",
        "domains/MB/examples.md",
        "VARIABLE_INDEX.md"
      ],
      "top5_similarities": [
        0.7379,
        0.5274,
        0.7557,
        0.6599,
        0.6529
      ],
      "fact_recall": 1.0,
      "fact_hits": [
        "Findings",
        "MBTESTCD",
        "C120527",
        "Topic"
      ],
      "fact_misses": [],
      "answer_preview": "The **MBTESTCD** variable in the MB (Microbiology Specimen) domain is defined as follows:\n\n- **Label:** Microbiology Test or Finding Short Name  \n- **Type:** Char  \n- **Role:** Topic  \n- **Core:** Req  \n- **Controlled Terms (codelist code):** C120527  \n- **Definition:**  Short name of the measurement, test, or finding described in MBTEST. It can be used as a column name when converting from vertical to horizontal format. The value must be ≤8 characters, cannot start with a number, and may contain only letters, numbers, or underscores (e.g., \"MCORGIDN\" for Microbial Organism Identification, \"GM",
      "usage": {
        "prompt_tokens": 16196,
        "completion_tokens": 594,
        "total_tokens": 16790
      },
      "model": "deepseek-v4-pro",
      "elapsed_s": 11.8
    },
    {
      "id": "q62",
      "category": "single_domain",
      "question": "What is the SS (Subject Status) domain, what is the SSTESTCD variable, and what controlled terminology codelist does it use?",
      "source_recall": 1.0,
      "source_hits": [
        "domains/SS/spec.md"
      ],
      "source_misses": [],
      "top5_sources": [
        "domains/SS/spec.md",
        "terminology/core/other_part5.md",
        "VARIABLE_INDEX.md",
        "domains/SS/spec.md",
        "domains/SS/spec.md"
      ],
      "top5_similarities": [
        0.7493,
        0.5547,
        0.664,
        0.6925,
        0.6959
      ],
      "fact_recall": 1.0,
      "fact_hits": [
        "SSTESTCD",
        "C124305",
        "Findings",
        "Topic"
      ],
      "fact_misses": [],
      "answer_preview": "## SS Domain (Subject Status)\n\nThe SS (Subject Status) domain belongs to the **Findings** observation class and is used to capture subject-level status assessments such as survival status and follow‑up availability. **[Source: [3] VARIABLE_INDEX.md – \"SS — Subject Status (Findings)\"]**\n\n---\n\n## SSTESTCD Variable\n\n**SSTESTCD** is the short‑name variable in SS.\n\n| Attribute          | Detail                                                                                                                      |\n|--------------------|------------------------------------------------------------------",
      "usage": {
        "prompt_tokens": 13961,
        "completion_tokens": 1274,
        "total_tokens": 15235
      },
      "model": "deepseek-v4-pro",
      "elapsed_s": 25.24
    },
    {
      "id": "q63",
      "category": "single_domain",
      "question": "In the SC (Subject Characteristics) domain, what observation class is it and what is its dataset structure?",
      "source_recall": 1.0,
      "source_hits": [
        "domains/SC/spec.md"
      ],
      "source_misses": [],
      "top5_sources": [
        "domains/SC/spec.md",
        "domains/SC/spec.md",
        "domains/SC/spec.md",
        "domains/SC/spec.md",
        "domains/SC/assumptions.md"
      ],
      "top5_similarities": [
        0.6075,
        0.5412,
        0.5168,
        0.4906,
        0.625
      ],
      "fact_recall": 1.0,
      "fact_hits": [
        "Findings",
        "one record per characteristic",
        "Subject Characteristics"
      ],
      "fact_misses": [],
      "answer_preview": "Based on the provided context, the SC (Subject Characteristics) domain belongs to the **Findings** general observation class **[Source: domains/SC/assumptions.md]**, and its dataset structure is **One record per characteristic per visit per subject** **[Source: domains/SC/examples.md]**.",
      "usage": {
        "prompt_tokens": 13995,
        "completion_tokens": 355,
        "total_tokens": 14350
      },
      "model": "deepseek-v4-pro",
      "elapsed_s": 8.51
    },
    {
      "id": "q64",
      "category": "single_domain",
      "question": "What is the PC (Pharmacokinetics Concentrations) domain used for and what is the structure of one record in this dataset?",
      "source_recall": 1.0,
      "source_hits": [
        "domains/PC/spec.md"
      ],
      "source_misses": [],
      "top5_sources": [
        "domains/PC/spec.md",
        "domains/PC/spec.md",
        "domains/PC/spec.md",
        "domains/PC/spec.md",
        "domains/PC/assumptions.md"
      ],
      "top5_similarities": [
        0.5528,
        0.544,
        0.5291,
        0.5153,
        0.7165
      ],
      "fact_recall": 1.0,
      "fact_hits": [
        "Findings",
        "concentration",
        "analyte"
      ],
      "fact_misses": [],
      "answer_preview": "The **PC (Pharmacokinetics Concentrations)** domain is a **Findings** domain used to store measured drug (or metabolite) concentrations in biological specimens over time, typically relative to a dosing event or other reference time point. Its topic is the time‑concentration curve of an analyte **[Source: domains/PC/assumptions.md, section “PC – Specification”; chapters/ch08_relationships.md, section 8.6.2]**. The data enable calculation of pharmacokinetic parameters (e.g., AUC, Cmax, Tmax) that are reported in the PP domain.\n\n**Record structure** – Each PC dataset record represents **one conce",
      "usage": {
        "prompt_tokens": 14385,
        "completion_tokens": 1064,
        "total_tokens": 15449
      },
      "model": "deepseek-v4-pro",
      "elapsed_s": 23.23
    },
    {
      "id": "q65",
      "category": "single_domain",
      "question": "In the DA (Product Accountability) domain, what observation class does it belong to and what is the structure of the dataset?",
      "source_recall": 1.0,
      "source_hits": [
        "domains/DA/spec.md"
      ],
      "source_misses": [],
      "top5_sources": [
        "domains/DA/spec.md",
        "domains/DA/spec.md",
        "domains/DA/spec.md",
        "domains/DA/spec.md",
        "VARIABLE_INDEX.md"
      ],
      "top5_similarities": [
        0.5267,
        0.487,
        0.4531,
        0.4429,
        0.552
      ],
      "fact_recall": 1.0,
      "fact_hits": [
        "Findings",
        "Product Accountability",
        "per subject"
      ],
      "fact_misses": [],
      "answer_preview": "Based on the provided context, the DA (Product Accountability) domain belongs to the **Findings** observation class.\n\nThe structure for a domain in the Findings observation class is **One Record per Finding** **[Source: model/02_observation_classes.md]**. Therefore, the specific dataset structure for DA is one record per product accountability assessment per subject.\n\nThe VARIABLE_INDEX.md explicitly categorizes DA under \"Findings\" **[Source: VARIABLE_INDEX.md]**, and the domain's spec file links to the Findings class definition **[Source: domains/DA/spec.md]**.\n\n**Note:** The standard dataset",
      "usage": {
        "prompt_tokens": 13095,
        "completion_tokens": 619,
        "total_tokens": 13714
      },
      "model": "deepseek-v4-pro",
      "elapsed_s": 14.62
    },
    {
      "id": "q66",
      "category": "cross_domain",
      "question": "Which SDTM domains include the VISITNUM timing variable?",
      "source_recall": 1.0,
      "source_hits": [
        "VARIABLE_INDEX.md"
      ],
      "source_misses": [],
      "top5_sources": [
        "VARIABLE_INDEX.md",
        "domains/EX/assumptions.md",
        "chapters/ch04_general_assumptions.md",
        "domains/SU/assumptions.md",
        "model/01_concepts_and_terms.md"
      ],
      "top5_similarities": [
        0.5448,
        0.6769,
        0.6828,
        0.685,
        11.1925
      ],
      "fact_recall": 0.75,
      "fact_hits": [
        "VISITNUM",
        "LB",
        "VS"
      ],
      "fact_misses": [
        "Visit Number"
      ],
      "answer_preview": "The provided context does not include a complete, index‑level listing of all SDTM domains that contain the **VISITNUM** variable. According to the routing guide, such a cross‑domain query would normally be answered by consulting the **通用变量** (common variables) section of [`VARIABLE_INDEX.md`](VARIABLE_INDEX.md), but that section was not retrieved.\n\nFrom the limited material available, the following can be confirmed:\n\n- **EX** (Exposure) – VISITNUM is described as a permissible additional timing variable when the exposure occurs within a clinical encounter **[Source: domains/EX/assumptions.md, ",
      "usage": {
        "prompt_tokens": 14278,
        "completion_tokens": 1886,
        "total_tokens": 16164
      },
      "model": "deepseek-v4-pro",
      "elapsed_s": 40.57
    },
    {
      "id": "q67",
      "category": "cross_domain",
      "question": "Many SDTM variables use the No Yes Response codelist C66742. How many variables reference it and give some examples of AE seriousness variables that use it.",
      "source_recall": 1.0,
      "source_hits": [
        "VARIABLE_INDEX.md"
      ],
      "source_misses": [],
      "top5_sources": [
        "VARIABLE_INDEX.md",
        "domains/AE/spec.md",
        "terminology/core/general_part4.md",
        "domains/AE/examples.md",
        "chapters/ch04_general_assumptions.md"
      ],
      "top5_similarities": [
        0.4669,
        0.5381,
        0.6495,
        0.5542,
        0.5827
      ],
      "fact_recall": 0.6667,
      "fact_hits": [
        "C66742",
        "AESER"
      ],
      "fact_misses": [
        "AESDTH"
      ],
      "answer_preview": "Based on the provided context, the AE domain specification states that the codelist **No Yes Response (C66742)** is referenced by several variables, totaling **13** within that domain.\n\nExamples of AE seriousness variables that use this codelist include:\n- AESER\n- AESCAN\n- AESCONG\n- AESDISAB\n\n**[Source: domains/AE/spec.md]**",
      "usage": {
        "prompt_tokens": 15528,
        "completion_tokens": 293,
        "total_tokens": 15821
      },
      "model": "deepseek-v4-pro",
      "elapsed_s": 7.47
    },
    {
      "id": "q68",
      "category": "cross_domain",
      "question": "Which domains use the Completion Status codelist (C66789) for their --STAT variable, and what does --STAT indicate?",
      "source_recall": 1.0,
      "source_hits": [
        "VARIABLE_INDEX.md"
      ],
      "source_misses": [],
      "top5_sources": [
        "VARIABLE_INDEX.md",
        "terminology/core/general_part4.md",
        "domains/SS/spec.md",
        "domains/SC/spec.md",
        "domains/IS/spec.md"
      ],
      "top5_similarities": [
        0.5065,
        0.4661,
        0.685,
        0.6915,
        0.6622
      ],
      "fact_recall": 1.0,
      "fact_hits": [
        "C66789",
        "STAT",
        "Completion Status"
      ],
      "fact_misses": [],
      "answer_preview": "The variable **--STAT** is a Permissible Record Qualifier found in many Findings, Events, and Interventions domains. It uses the controlled codelist **C66789** (\"Not Done\"), which contains a single extensible value: **NOT DONE** [Source: terminology/core/general_part4.md]. When present, --STAT indicates that the assessment, test, question, or measurement was not performed, not completed, or not answered. If a result exists in the corresponding --ORRES variable, --STAT should be null [Source: various domain specs].\n\nThe following domains from the retrieved context use codelist C66789 for their ",
      "usage": {
        "prompt_tokens": 9777,
        "completion_tokens": 1451,
        "total_tokens": 11228
      },
      "model": "deepseek-v4-pro",
      "elapsed_s": 25.5
    },
    {
      "id": "q69",
      "category": "cross_domain",
      "question": "The dose units codelist C71620 is shared across many Intervention and Findings domains. Which variables such as EXDOSU and CMDOSU reference it?",
      "source_recall": 1.0,
      "source_hits": [
        "VARIABLE_INDEX.md"
      ],
      "source_misses": [],
      "top5_sources": [
        "VARIABLE_INDEX.md",
        "terminology/core/general_part5.md",
        "domains/CM/spec.md",
        "domains/EX/spec.md",
        "domains/CM/spec.md"
      ],
      "top5_similarities": [
        0.5647,
        0.4805,
        0.7093,
        0.6827,
        0.6319
      ],
      "fact_recall": 1.0,
      "fact_hits": [
        "C71620",
        "EXDOSU",
        "CMDOSU"
      ],
      "fact_misses": [],
      "answer_preview": "Based on the provided context, the following variables reference the dose units codelist **C71620**:\n\n- **ECDOSU** (Exposure as Collected — Dose Units) **[Source: VARIABLE_INDEX.md — EC]**\n- **CMDOSU** (Concomitant/Prior Medications — Dose Units) **[Source: domains/CM/spec.md]**\n- **EXDOSU** (Exposure — Dose Units) **[Source: domains/EX/spec.md]**\n- **MLDOSU** (Meal Data — Dose Units) **[Source: domains/ML/spec.md]**\n\nThe context only surfaced these four variables as referencing C71620. Other variables in Interventions or Findings domains may also use this codelist, but that information is not",
      "usage": {
        "prompt_tokens": 15373,
        "completion_tokens": 328,
        "total_tokens": 15701
      },
      "model": "deepseek-v4-pro",
      "elapsed_s": 8.5
    },
    {
      "id": "q70",
      "category": "cross_domain",
      "question": "How is the RELSUB (Related Subjects) dataset used to represent relationships between two subjects, and what does the RSUBJID variable hold?",
      "source_recall": 1.0,
      "source_hits": [
        "domains/RELSUB/spec.md"
      ],
      "source_misses": [],
      "top5_sources": [
        "domains/RELSUB/spec.md",
        "domains/RELSUB/spec.md",
        "domains/RELSUB/spec.md",
        "domains/RELSUB/spec.md",
        "chapters/ch08_relationships.md"
      ],
      "top5_similarities": [
        0.7436,
        0.6211,
        0.562,
        0.4966,
        0.7848
      ],
      "fact_recall": 1.0,
      "fact_hits": [
        "RSUBJID",
        "USUBJID",
        "SREL"
      ],
      "fact_misses": [],
      "answer_preview": "The **RELSUB (Related Subjects)** dataset is a special-purpose domain used to represent relationships between two study subjects. According to the SDTMIG, it specifically handles relationships where **both parties are enrolled study subjects**.\n\n### 1. How RELSUB Represents Relationships Between Two Subjects\n\nRELSUB represents every relationship between two subjects using a **pair of directional records**. This ensures the relationship is fully described from both sides:\n\n*   **Bidirectional Representation:** For any relationship between Subject A and Subject B, two records are created in RELS",
      "usage": {
        "prompt_tokens": 12611,
        "completion_tokens": 1876,
        "total_tokens": 14487
      },
      "model": "deepseek-v4-pro",
      "elapsed_s": 31.54
    },
    {
      "id": "q71",
      "category": "cross_domain",
      "question": "What is the EVAL (Evaluator) codelist C78735 and which domains' --EVAL variables share it?",
      "source_recall": 1.0,
      "source_hits": [
        "VARIABLE_INDEX.md"
      ],
      "source_misses": [],
      "top5_sources": [
        "VARIABLE_INDEX.md",
        "terminology/core/general_part2.md",
        "domains/CO/spec.md",
        "domains/TU/spec.md",
        "domains/CO/spec.md"
      ],
      "top5_similarities": [
        0.448,
        0.4083,
        0.6115,
        0.581,
        0.6168
      ],
      "fact_recall": 1.0,
      "fact_hits": [
        "C78735",
        "EVAL",
        "PE"
      ],
      "fact_misses": [],
      "answer_preview": "The codelist **C78735** is the **Evaluator** codelist, used to record the role of the person (or group) who provided a subjective evaluation.  \n\nWhich domains’ `--EVAL` variables share this codelist? Based on the retrieved context, the following domains include an `--EVAL` variable with controlled term C78735:\n\n- **CO** – `COEVAL` (Evaluator) **[Source: [6]]**  \n- **DD** – `DDEVAL` (Evaluator) **[Source: [9]]**  \n- **CV** – `CVEVAL` (Evaluator) **[Source: [10]]**  \n- **OE** – `OEEVAL` (Evaluator) **[Source: [11]]**  \n- **NV** – `NVEVAL` (Evaluator) **[Source: [12]]**  \n- **RE** – `REEVAL` (Eva",
      "usage": {
        "prompt_tokens": 10336,
        "completion_tokens": 1335,
        "total_tokens": 11671
      },
      "model": "deepseek-v4-pro",
      "elapsed_s": 27.03
    },
    {
      "id": "q72",
      "category": "cross_domain",
      "question": "How do the PC (Pharmacokinetics Concentrations) and PP (Pharmacokinetic Parameters) domains relate to each other, and why are they kept as two separate domains?",
      "source_recall": 1.0,
      "source_hits": [
        "chapters/ch08_relationships.md"
      ],
      "source_misses": [],
      "top5_sources": [
        "domains/PC/spec.md",
        "domains/PP/spec.md",
        "domains/PC/assumptions.md",
        "domains/PC/assumptions.md",
        "domains/PC/assumptions.md"
      ],
      "top5_similarities": [
        0.5578,
        0.5491,
        0.733,
        0.6403,
        0.5665
      ],
      "fact_recall": 1.0,
      "fact_hits": [
        "PC",
        "PP",
        "parameter"
      ],
      "fact_misses": [],
      "answer_preview": "The PC (Pharmacokinetics Concentrations) and PP (Pharmacokinetics Parameters) domains are separate because they represent two distinct scientific topics with different data structures, but they are intrinsically linked because PP parameters are derived from PC concentration-time data.\n\n### Why Two Separate Domains?\n\nAccording to the SDTMIG, the PK data is split into two domains because each topic results in a different data structure **[Source: chapters/ch08_relationships.md]**:\n*   **PC (Pharmacokinetics Concentrations)**: The topic is the drug concentration in a specimen (e.g., plasma) as a ",
      "usage": {
        "prompt_tokens": 16333,
        "completion_tokens": 1184,
        "total_tokens": 17517
      },
      "model": "deepseek-v4-pro",
      "elapsed_s": 23.55
    },
    {
      "id": "q73",
      "category": "cross_domain",
      "question": "Which special-purpose and relationship domains carry the RDOMAIN variable, and what does RDOMAIN identify?",
      "source_recall": 0.0,
      "source_hits": [],
      "source_misses": [
        "model/06_relationship_datasets.md"
      ],
      "top5_sources": [
        "VARIABLE_INDEX.md",
        "domains/RELREC/spec.md",
        "chapters/ch08_relationships.md",
        "domains/SUPPQUAL/spec.md",
        "domains/RELREC/assumptions.md"
      ],
      "top5_similarities": [
        0.4962,
        0.7528,
        17.7327,
        0.7491,
        16.2389
      ],
      "fact_recall": 0.6667,
      "fact_hits": [
        "RDOMAIN",
        "parent"
      ],
      "fact_misses": [
        "2-character"
      ],
      "answer_preview": "The variable **RDOMAIN** (Related Domain Abbreviation) is used to record the two‑character domain code of the parent record(s) to which the current record refers. It appears in one special‑purpose domain and two relationship domains.\n\n### Special‑Purpose Domain\n\n- **CO (Comments)** – RDOMAIN is a **Perm**‑core Record Qualifier. It holds the two‑character abbreviation for the domain of the comment’s parent record(s). When a comment is collected on a general‑comments page not linked to a specific domain, RDOMAIN is left null.  \n  **[Source: domains/CO/spec.md – RDOMAIN]**\n\n### Relationship Domai",
      "usage": {
        "prompt_tokens": 14432,
        "completion_tokens": 1169,
        "total_tokens": 15601
      },
      "model": "deepseek-v4-pro",
      "elapsed_s": 23.35
    },
    {
      "id": "q74",
      "category": "cross_domain",
      "question": "How are Supplemental Qualifier datasets named per parent domain (for example for AE and CM), and what variable ties each SUPP-- record back to its parent domain?",
      "source_recall": 1.0,
      "source_hits": [
        "model/06_relationship_datasets.md"
      ],
      "source_misses": [],
      "top5_sources": [
        "domains/AE/spec.md",
        "domains/CM/spec.md",
        "model/06_relationship_datasets.md",
        "domains/SUPPQUAL/assumptions.md",
        "chapters/ch08_relationships.md"
      ],
      "top5_similarities": [
        0.4955,
        0.4615,
        0.8137,
        0.7436,
        0.7453
      ],
      "fact_recall": 1.0,
      "fact_hits": [
        "suppae",
        "RDOMAIN",
        "supp--"
      ],
      "fact_misses": [],
      "answer_preview": "Based on the provided context, here are the answers to your questions:\n\n**1. Naming of Supplemental Qualifier Datasets**\n\nSupplemental Qualifier datasets are named using the convention `SUPP--`, where `--` is replaced by the two-character domain code of the parent domain. There is a one-to-one correspondence between a domain dataset and its Supplemental Qualifier dataset. **[Source: chapters/ch08_relationships.md]**\n\n*   For the **AE** domain, the Supplemental Qualifiers dataset is named `suppae.xpt`. This is confirmed by an example showing `suppae.xpt` used to add qualifying information to ad",
      "usage": {
        "prompt_tokens": 17937,
        "completion_tokens": 813,
        "total_tokens": 18750
      },
      "model": "deepseek-v4-pro",
      "elapsed_s": 18.23
    },
    {
      "id": "q75",
      "category": "cross_domain",
      "question": "In SDTM, which identifier variables besides USUBJID can identify the source of a record across the general observation classes (for example for pooled or device data)?",
      "source_recall": 1.0,
      "source_hits": [
        "model/02_observation_classes.md"
      ],
      "source_misses": [],
      "top5_sources": [
        "model/02_observation_classes.md",
        "model/02_observation_classes.md",
        "domains/SUPPQUAL/spec.md",
        "model/01_concepts_and_terms.md",
        "domains/RELSUB/spec.md"
      ],
      "top5_similarities": [
        0.6708,
        0.6648,
        0.6786,
        21.0629,
        0.6767
      ],
      "fact_recall": 1.0,
      "fact_hits": [
        "USUBJID",
        "POOLID",
        "SPDEVID"
      ],
      "fact_misses": [],
      "answer_preview": "In the SDTM general observation classes (Interventions, Events, Findings), each domain must include at least one of three subject identifiers. Beyond **USUBJID** (Unique Subject Identifier), the permitted identifiers that can identify the source of a record are:\n\n- **POOLID** (Pool Identifier) – used when results are not assignable to a specific subject (e.g., pooled samples, environmental data).\n- **SPDEVID** (Sponsor Device Identifier) – used when the record originates from or relates to a specific device, rather than a subject directly.\n\nThese variables are listed in the Identifiers for All",
      "usage": {
        "prompt_tokens": 14824,
        "completion_tokens": 876,
        "total_tokens": 15700
      },
      "model": "deepseek-v4-pro",
      "elapsed_s": 19.55
    },
    {
      "id": "q76",
      "category": "cross_domain",
      "question": "How do the AP (Associated Persons) domains link non-subject persons back to study subjects, and what role do RSUBJID and SREL play?",
      "source_recall": 1.0,
      "source_hits": [
        "model/04_associated_persons.md"
      ],
      "source_misses": [],
      "top5_sources": [
        "VARIABLE_INDEX.md",
        "model/06_relationship_datasets.md",
        "model/04_associated_persons.md",
        "chapters/ch08_relationships.md",
        "domains/RELSUB/assumptions.md"
      ],
      "top5_similarities": [
        0.5794,
        0.7014,
        0.6695,
        0.6671,
        0.6962
      ],
      "fact_recall": 1.0,
      "fact_hits": [
        "APID",
        "RSUBJID",
        "SREL"
      ],
      "fact_misses": [],
      "answer_preview": "Based on the provided context, Associated Persons (AP) domains link non-subject persons back to study subjects using the variables `RSUBJID` and `SREL`. These variables are fundamental to the AP domain structure, which modifies the standard subject-level SDTM domains using a specific prefix.\n\nHere is the detailed mechanism:\n\n1.  **Domain Structure and Identifier Change**\n    AP domains reuse standard SDTM structures but apply a prefix convention (e.g., demographics data for associated persons would go into an `APDM` domain). More importantly, the primary individual identifier shifts from `USUB",
      "usage": {
        "prompt_tokens": 12791,
        "completion_tokens": 1016,
        "total_tokens": 13807
      },
      "model": "deepseek-v4-pro",
      "elapsed_s": 19.66
    },
    {
      "id": "q77",
      "category": "cross_domain",
      "question": "The EPOCH timing variable appears in many domains. List several domains where EPOCH is used and state what kind of variable it is.",
      "source_recall": 1.0,
      "source_hits": [
        "VARIABLE_INDEX.md"
      ],
      "source_misses": [],
      "top5_sources": [
        "VARIABLE_INDEX.md",
        "domains/TA/assumptions.md",
        "chapters/ch04_general_assumptions.md",
        "domains/SR/spec.md",
        "domains/TE/examples.md"
      ],
      "top5_similarities": [
        0.4727,
        0.7118,
        0.6476,
        0.6753,
        13.9737
      ],
      "fact_recall": 0.75,
      "fact_hits": [
        "EPOCH",
        "Timing",
        "EX"
      ],
      "fact_misses": [
        "AE"
      ],
      "answer_preview": "Based on the provided context, EPOCH is a **Timing** variable. The variable's role is documented as **Timing** for all the following domains where it appears in the retrieved specifications:\n\n- **SR** (Skin Response) **[Source: domains/SR/spec.md]**\n- **UR** (Urinary System Findings) **[Source: domains/UR/spec.md]**\n- **LB** (Laboratory Test Results) **[Source: domains/LB/spec.md]**\n- **CP** (Cell Phenotype Findings) **[Source: domains/CP/spec.md]**\n- **PP** (Pharmacokinetics Parameters) **[Source: domains/PP/spec.md]**\n- **FA** (Findings About Events or Interventions) **[Source: domains/FA/sp",
      "usage": {
        "prompt_tokens": 14492,
        "completion_tokens": 553,
        "total_tokens": 15045
      },
      "model": "deepseek-v4-pro",
      "elapsed_s": 13.06
    },
    {
      "id": "q78",
      "category": "concept",
      "question": "What are the rules for values of --TESTCD variables in SDTM? Describe the maximum length and which characters are allowed.",
      "source_recall": 1.0,
      "source_hits": [
        "chapters/ch04_general_assumptions.md"
      ],
      "source_misses": [],
      "top5_sources": [
        "chapters/ch04_general_assumptions.md",
        "chapters/ch04_general_assumptions.md",
        "chapters/ch04_general_assumptions.md",
        "domains/QS/assumptions.md",
        "domains/FT/assumptions.md"
      ],
      "top5_similarities": [
        0.6937,
        0.6892,
        0.615,
        0.5933,
        0.5933
      ],
      "fact_recall": 0.6667,
      "fact_hits": [
        "8 characters",
        "cannot start with a number"
      ],
      "fact_misses": [
        "letters, numbers, or underscores"
      ],
      "answer_preview": "The rules for `--TESTCD` variables in SDTM (and for `QNAM` in supplemental qualifiers, which follows the same restrictions) are as follows:\n\n- **Maximum length:** 8 characters.  \n- **Character restrictions:** Values must consist *only* of letters, numbers, and underscores.  \n- **First-character restriction:** The value **cannot start with a number** (e.g., “1TEST” is invalid).  \n\nThese restrictions are driven by the need for compatibility with SAS v5 transport files. When a `--TESTCD` is used as a column name after transposing a Findings dataset from vertical to horizontal format, it must conf",
      "usage": {
        "prompt_tokens": 12165,
        "completion_tokens": 968,
        "total_tokens": 13133
      },
      "model": "deepseek-v4-pro",
      "elapsed_s": 20.32
    },
    {
      "id": "q79",
      "category": "concept",
      "question": "How does SDTM represent a missing value, and what should be done when a test is not performed?",
      "source_recall": 1.0,
      "source_hits": [
        "chapters/ch04_general_assumptions.md"
      ],
      "source_misses": [],
      "top5_sources": [
        "chapters/ch04_general_assumptions.md",
        "chapters/ch04_general_assumptions.md",
        "chapters/ch04_general_assumptions.md",
        "terminology/core/other_part4.md",
        "terminology/supplementary/supplementary_part5.md"
      ],
      "top5_similarities": [
        0.6134,
        0.5564,
        0.5115,
        0.5714,
        0.5688
      ],
      "fact_recall": 1.0,
      "fact_hits": [
        "null",
        "NOT DONE",
        "STAT",
        "REASND"
      ],
      "fact_misses": [],
      "answer_preview": "In SDTM, **missing values are always represented as null** (i.e., an empty cell). When a test is not performed, the standard mechanism is to use the `--STAT` variable set to `\"NOT DONE\"` and, if a reason was explicitly collected, the `--REASND` variable to capture it.\n\n### Missing‑value convention\n- A data point that is truly missing is left blank (null).  \n- There is no special code like “NA” or a space; the dataset simply contains nothing in that position.  \n\n**[Source: chapters/ch04_general_assumptions.md, §4.2.5]**\n\n### What to do when a test is not performed\n\n1. **Create a record only if ",
      "usage": {
        "prompt_tokens": 14769,
        "completion_tokens": 1546,
        "total_tokens": 16315
      },
      "model": "deepseek-v4-pro",
      "elapsed_s": 28.16
    },
    {
      "id": "q80",
      "category": "concept",
      "question": "What is the convention for using 'Yes' and 'No' values in SDTM variables, and when is it acceptable to populate only one value?",
      "source_recall": 1.0,
      "source_hits": [
        "chapters/ch04_general_assumptions.md"
      ],
      "source_misses": [],
      "top5_sources": [
        "chapters/ch04_general_assumptions.md",
        "chapters/ch04_general_assumptions.md",
        "chapters/ch04_general_assumptions.md",
        "chapters/ch04_general_assumptions.md",
        "chapters/ch03_submitting_data.md"
      ],
      "top5_similarities": [
        0.6584,
        0.5395,
        0.5168,
        0.4937,
        0.5223
      ],
      "fact_recall": 1.0,
      "fact_hits": [
        "Yes",
        "No",
        "single checkbox"
      ],
      "fact_misses": [],
      "answer_preview": "Based on the provided context, the convention for using \"Yes\" and \"No\" values in SDTM variables is as follows:\n\n**General Convention**\nVariables that use \"Yes\" (\"Y\") or \"No\" (\"N\") as a response should normally be populated for both affirmative and negative responses. This practice is intended to eliminate ambiguity over whether a blank field indicates \"No\" or is simply a missing value. **[Source: chapters/ch04_general_assumptions.md]**\n\n**Exception for Populating Only One Value**\nIt is permissible to populate only a single value—either \"Y\" or \"N\"—and leave the alternative blank when the data c",
      "usage": {
        "prompt_tokens": 17414,
        "completion_tokens": 925,
        "total_tokens": 18339
      },
      "model": "deepseek-v4-pro",
      "elapsed_s": 19.66
    },
    {
      "id": "q81",
      "category": "concept",
      "question": "What rules govern the two-character DOMAIN code in SDTM? What characters are allowed for the first and second characters?",
      "source_recall": 1.0,
      "source_hits": [
        "chapters/ch04_general_assumptions.md"
      ],
      "source_misses": [],
      "top5_sources": [
        "chapters/ch04_general_assumptions.md",
        "domains/TM/spec.md",
        "chapters/ch04_general_assumptions.md",
        "domains/DA/spec.md",
        "chapters/ch04_general_assumptions.md"
      ],
      "top5_similarities": [
        0.7129,
        0.6583,
        14.2372,
        0.6435,
        12.8348
      ],
      "fact_recall": 0.0,
      "fact_hits": [],
      "fact_misses": [
        "2-character",
        "A-Z",
        "0-9"
      ],
      "answer_preview": "The two-character **DOMAIN** code is subject to a strict character set rule:\n\n- **First character:** must be an uppercase letter from **A to Z**.\n- **Second character:** must be an uppercase letter from **A to Z** or a digit from **0 to 9**.\n\nNo other characters (e.g., lowercase letters, hyphens, underscores) are permitted. This limitation is required for compatibility with SAS V5 transport files and the file-naming conventions of the Electronic Common Technical Document (eCTD). **[Source: chapters/ch04_general_assumptions.md §4.2.2]**\n\nAdditionally, this two-character code is used consistentl",
      "usage": {
        "prompt_tokens": 13228,
        "completion_tokens": 533,
        "total_tokens": 13761
      },
      "model": "deepseek-v4-pro",
      "elapsed_s": 10.75
    },
    {
      "id": "q82",
      "category": "concept",
      "question": "Which identifier variables are required in all domains based on the three general observation classes, and which subject-level identifier must each include?",
      "source_recall": 1.0,
      "source_hits": [
        "model/02_observation_classes.md"
      ],
      "source_misses": [],
      "top5_sources": [
        "model/02_observation_classes.md",
        "chapters/ch04_general_assumptions.md",
        "model/02_observation_classes.md",
        "chapters/ch04_general_assumptions.md",
        "domains/DM/assumptions.md"
      ],
      "top5_similarities": [
        0.7071,
        0.6441,
        0.6224,
        0.5653,
        0.5557
      ],
      "fact_recall": 1.0,
      "fact_hits": [
        "STUDYID",
        "DOMAIN",
        "SEQ",
        "USUBJID"
      ],
      "fact_misses": [],
      "answer_preview": "Based on the SDTM v2.0 model, the following identifier variables are required in all domains based on the three general observation classes (Interventions, Events, and Findings):\n\nThe three required variables are **STUDYID**, **DOMAIN**, and **--SEQ** (Sequence Number) **[Source: model/02_observation_classes.md]**.\n\nIn addition to these three, each general class domain must include at least one of the following subject-level identifiers: **USUBJID**, **SPDEVID**, or **POOLID** **[Source: model/02_observation_classes.md]**. These variables serve to identify what the observation is about (a spec",
      "usage": {
        "prompt_tokens": 14015,
        "completion_tokens": 507,
        "total_tokens": 14522
      },
      "model": "deepseek-v4-pro",
      "elapsed_s": 11.77
    },
    {
      "id": "q83",
      "category": "concept",
      "question": "What is RELREC and how is it used to relate records or datasets to one another in SDTM? What does the RDOMAIN variable do in RELREC?",
      "source_recall": 1.0,
      "source_hits": [
        "model/06_relationship_datasets.md"
      ],
      "source_misses": [],
      "top5_sources": [
        "domains/RELREC/spec.md",
        "domains/RELREC/spec.md",
        "domains/RELREC/spec.md",
        "domains/RELREC/spec.md",
        "domains/RELREC/assumptions.md"
      ],
      "top5_similarities": [
        0.6849,
        0.6512,
        0.5874,
        0.5851,
        0.7576
      ],
      "fact_recall": 1.0,
      "fact_hits": [
        "RELREC",
        "RDOMAIN",
        "Identifier"
      ],
      "fact_misses": [],
      "answer_preview": "RELREC (Related Records) is a special-purpose SDTM dataset used to \"describe relationships between records for a subject within or across domains, and relationships of records across datasets\" [Source: chapters/ch08_relationships.md]. The dataset captures relationships that were collected during the study, such as explicit references on a CRF. [Source: domains/RELREC/assumptions.md]\n\n### How RELREC Works\n\nRELREC represents relationships by defining a unique **RELID** (Relationship Identifier) and assigning it to every record involved in that relationship. All records sharing the same RELID val",
      "usage": {
        "prompt_tokens": 15298,
        "completion_tokens": 1001,
        "total_tokens": 16299
      },
      "model": "deepseek-v4-pro",
      "elapsed_s": 22.84
    },
    {
      "id": "q84",
      "category": "concept",
      "question": "When deciding whether data belong to the Events, Interventions, or Findings observation class, what is the definition of an intervention versus an event?",
      "source_recall": 1.0,
      "source_hits": [
        "chapters/ch08_relationships.md"
      ],
      "source_misses": [],
      "top5_sources": [
        "chapters/ch08_relationships.md",
        "chapters/ch08_relationships.md",
        "chapters/ch04_general_assumptions.md",
        "domains/FA/assumptions.md",
        "domains/FA/assumptions.md"
      ],
      "top5_similarities": [
        0.6892,
        0.6095,
        0.5137,
        0.6076,
        0.5521
      ],
      "fact_recall": 1.0,
      "fact_hits": [
        "intervention",
        "event",
        "physiological effect"
      ],
      "fact_misses": [],
      "answer_preview": "According to the SDTMIG v3.4, the definitions are:\n\n- **Intervention:** *“An intervention is something that is done to a subject (possibly by the subject) that is expected to have a physiological effect.”*  \n  **[Source:** chapters/ch08_relationships.md**]**\n\n- **Event:** *“An event is something that happens to a subject spontaneously.”*  \n  **[Source:** chapters/ch08_relationships.md**]**\n\nThese definitions are used as the starting point when classifying observations into the Interventions or Events general observation classes, as described in the guidelines for determining the general observ",
      "usage": {
        "prompt_tokens": 14584,
        "completion_tokens": 539,
        "total_tokens": 15123
      },
      "model": "deepseek-v4-pro",
      "elapsed_s": 11.57
    },
    {
      "id": "q85",
      "category": "concept",
      "question": "What are Associated Persons in SDTM, and how are AP domains named relative to the standard domain codes?",
      "source_recall": 1.0,
      "source_hits": [
        "model/04_associated_persons.md"
      ],
      "source_misses": [],
      "top5_sources": [
        "model/04_associated_persons.md",
        "chapters/ch04_general_assumptions.md",
        "chapters/ch01_introduction.md",
        "model/01_concepts_and_terms.md",
        "chapters/ch02_fundamentals.md"
      ],
      "top5_similarities": [
        0.7784,
        0.5731,
        0.5322,
        0.5676,
        0.5432
      ],
      "fact_recall": 1.0,
      "fact_hits": [
        "Associated Persons",
        "AP",
        "APDM"
      ],
      "fact_misses": [],
      "answer_preview": "Based on the provided context, Associated Persons are individuals other than the primary study subjects who are associated with a study, a particular study subject, or a device used in the study [Source: model/04_associated_persons.md].\n\nThe naming convention for Associated Persons (AP) domains is defined by a specific prefix rule. AP domains are created by taking the standard domain code and prefixing it with `AP`. For example, an associated persons version of the Demographics domain (DM) would be named `APDM` [Source: model/04_associated_persons.md]. This is distinct from the standard datase",
      "usage": {
        "prompt_tokens": 15280,
        "completion_tokens": 458,
        "total_tokens": 15738
      },
      "model": "deepseek-v4-pro",
      "elapsed_s": 12.49
    },
    {
      "id": "q86",
      "category": "concept",
      "question": "What is an Expected (Exp) Core variable in SDTM, and what must be done in the Define-XML when a study does not collect the data item for an Expected variable?",
      "source_recall": 1.0,
      "source_hits": [
        "chapters/ch04_general_assumptions.md"
      ],
      "source_misses": [],
      "top5_sources": [
        "chapters/ch04_general_assumptions.md",
        "chapters/ch04_general_assumptions.md",
        "model/01_concepts_and_terms.md",
        "chapters/ch03_submitting_data.md",
        "domains/AE/assumptions.md"
      ],
      "top5_similarities": [
        0.7307,
        0.5805,
        0.5625,
        0.5376,
        0.492
      ],
      "fact_recall": 1.0,
      "fact_hits": [
        "Expected",
        "null",
        "Define-XML"
      ],
      "fact_misses": [],
      "answer_preview": "Based on the SDTMIG v3.4, here is the definition and requirement for an Expected (Exp) Core variable:\n\nAn **Expected (Exp) variable** is any variable necessary to make a record useful in the context of a specific domain. Expected variables may contain some null values, but in most cases will not contain null values for every record. **[Source: chapters/ch04_general_assumptions.md — 4.1.5]**\n\nWhen a study does not include the data item for an Expected variable, a null column must still be included in the dataset, and **a comment must be included in the Define-XML document** to state that the st",
      "usage": {
        "prompt_tokens": 16029,
        "completion_tokens": 497,
        "total_tokens": 16526
      },
      "model": "deepseek-v4-pro",
      "elapsed_s": 11.27
    },
    {
      "id": "q87",
      "category": "concept",
      "question": "How does SDTM decide whether assessments of an event should be stored as Supplemental Qualifiers versus in the Findings About (FA) domain?",
      "source_recall": 1.0,
      "source_hits": [
        "chapters/ch08_relationships.md"
      ],
      "source_misses": [],
      "top5_sources": [
        "domains/FA/spec.md",
        "domains/FA/spec.md",
        "domains/FA/spec.md",
        "domains/FA/spec.md",
        "domains/FA/assumptions.md"
      ],
      "top5_similarities": [
        0.5036,
        0.489,
        0.4871,
        0.4618,
        0.7222
      ],
      "fact_recall": 1.0,
      "fact_hits": [
        "Findings About",
        "supplemental qualifier",
        "event"
      ],
      "fact_misses": [],
      "answer_preview": "The decision hinges on **dimensionality** and **timing independence**. The SDTM model provides a clear hierarchy:\n\n-   **Supplemental Qualifiers (SUPP--)** are used for a **single, additional variable** describing the event *as a whole*.\n-   **The Findings About (FA) domain** is used when the assessment requires **multiple variables** to describe it, or when its timing is **different from the event as a whole**.\n\nThe specific criteria are outlined in the FA assumptions and relationship guidelines.\n\n### Deciding Factors\n\n| Use SUPPQUAL | Use Findings About (FA) |\n| :--- | :--- |\n| The assessmen",
      "usage": {
        "prompt_tokens": 16539,
        "completion_tokens": 1255,
        "total_tokens": 17794
      },
      "model": "deepseek-v4-pro",
      "elapsed_s": 29.59
    },
    {
      "id": "q88",
      "category": "concept",
      "question": "What distinguishes ETCD, TSPARMCD, and ARMCD from --TESTCD with respect to character restrictions and maximum lengths in SDTM?",
      "source_recall": 1.0,
      "source_hits": [
        "chapters/ch04_general_assumptions.md"
      ],
      "source_misses": [],
      "top5_sources": [
        "domains/DM/spec.md",
        "chapters/ch04_general_assumptions.md",
        "domains/TA/spec.md",
        "domains/TS/spec.md",
        "domains/DM/spec.md"
      ],
      "top5_similarities": [
        0.6434,
        0.6025,
        0.6254,
        0.6624,
        0.6089
      ],
      "fact_recall": 1.0,
      "fact_hits": [
        "ETCD",
        "TSPARMCD",
        "ARMCD",
        "20 characters"
      ],
      "fact_misses": [],
      "answer_preview": "## Key Distinctions\n\nThe SDTM standard imposes stricter character-content rules on `--TESTCD` than on other \"CD\" variables, but length limits vary per variable. The relevant conventions are laid out in the SDTMIG general assumptions.\n\n### Source of the restrictions\n> **Source:** [2] chapters/ch04_general_assumptions.md §4.2.1  \n>\n> \"Values of --TESTCD must be limited to 8 characters and cannot start with a number, nor can they contain characters other than letters, numbers, or underscores. … Values of other 'CD' variables are **not** subject to the same restrictions as --TESTCD.\"\n\nThe same res",
      "usage": {
        "prompt_tokens": 11648,
        "completion_tokens": 1243,
        "total_tokens": 12891
      },
      "model": "deepseek-v4-pro",
      "elapsed_s": 25.5
    },
    {
      "id": "q89",
      "category": "concept",
      "question": "What are the timing variables grouped under Relative Timing in SDTM (such as --STRF, --ENRF, --STRTPT, --ENRTPT) and what kinds of values do they take?",
      "source_recall": 1.0,
      "source_hits": [
        "model/02_observation_classes.md",
        "chapters/ch04_general_assumptions.md"
      ],
      "source_misses": [],
      "top5_sources": [
        "chapters/ch04_general_assumptions.md",
        "model/02_observation_classes.md",
        "domains/SV/assumptions.md",
        "chapters/ch04_general_assumptions.md",
        "domains/SU/spec.md"
      ],
      "top5_similarities": [
        0.713,
        0.638,
        0.6002,
        0.6249,
        0.5948
      ],
      "fact_recall": 1.0,
      "fact_hits": [
        "STRF",
        "ENRF",
        "STRTPT",
        "BEFORE"
      ],
      "fact_misses": [],
      "answer_preview": "The **Relative Timing** group in SDTM consists of variables that describe the temporal relationship of an observation to a defined reference — either the sponsor‑defined study reference period or a specific time point.  \nThese variables are part of the standard **Timing Variables for All Classes** (SDTM v2.0 Section 3.1.5) and are available in any domain based on the three general observation classes.\n\n---\n\n### Complete List of Relative Timing Variables\n\nThe following eight variables make up the Relative Timing group (ordered as in SDTM v2.0) **[Source: model/02_observation_classes.md]**:\n\n| V",
      "usage": {
        "prompt_tokens": 14116,
        "completion_tokens": 3272,
        "total_tokens": 17388
      },
      "model": "deepseek-v4-pro",
      "elapsed_s": 54.0
    },
    {
      "id": "q90",
      "category": "mixed",
      "question": "In the EX (Exposure) domain, what is the EXROUTE variable and its controlled terminology codelist code, and list some parenteral route-of-administration values from that codelist (for example routes administered under the skin or into a muscle).",
      "source_recall": 1.0,
      "source_hits": [
        "domains/EX/spec.md",
        "terminology/core/interventions.md"
      ],
      "source_misses": [],
      "top5_sources": [
        "domains/EX/spec.md",
        "terminology/core/interventions.md",
        "domains/EX/examples.md",
        "domains/EX/assumptions.md",
        "domains/EX/spec.md"
      ],
      "top5_similarities": [
        0.6862,
        0.4971,
        0.5685,
        0.5878,
        0.631
      ],
      "fact_recall": 1.0,
      "fact_hits": [
        "EXROUTE",
        "C66729",
        "SUBCUTANEOUS",
        "INTRAMUSCULAR"
      ],
      "fact_misses": [],
      "answer_preview": "## EXROUTE — Variable Definition\n\n**Variable:** EXROUTE  \n**Label:** Route of Administration  \n**Type:** Char  \n**Role:** Variable Qualifier  \n**Core:** Perm  \n**Controlled Terms:** **C66729** (Route of Administration Response)  \n**CDISC Notes:** Route of administration for the intervention. Examples: \"ORAL\", \"INTRAVENOUS\". **[Source: domains/EX/spec.md]**\n\nThe C66729 codelist is **Extensible: Yes**, meaning sponsors may add new terms if the needed route is not already in the published terminology. **[Source: terminology/core/interventions.md]**\n\n---\n\n## Parenteral Routes (Under Skin / Into Mu",
      "usage": {
        "prompt_tokens": 14185,
        "completion_tokens": 1392,
        "total_tokens": 15577
      },
      "model": "deepseek-v4-pro",
      "elapsed_s": 28.22
    },
    {
      "id": "q91",
      "category": "mixed",
      "question": "In the DS (Disposition) domain, which codelist does DSDECOD use for disposition events, and what are some reason-for-non-completion values from that codelist (for example a subject-initiated withdrawal or a physician's decision)?",
      "source_recall": 1.0,
      "source_hits": [
        "domains/DS/spec.md",
        "terminology/core/disposition.md"
      ],
      "source_misses": [],
      "top5_sources": [
        "domains/DS/spec.md",
        "terminology/core/disposition.md",
        "domains/DS/assumptions.md",
        "domains/DS/assumptions.md",
        "domains/DS/spec.md"
      ],
      "top5_similarities": [
        0.7472,
        0.6083,
        0.7319,
        0.6143,
        0.6825
      ],
      "fact_recall": 1.0,
      "fact_hits": [
        "DSDECOD",
        "C66727",
        "WITHDRAWAL BY SUBJECT",
        "PHYSICIAN DECISION"
      ],
      "fact_misses": [],
      "answer_preview": "DSDECOD for disposition events uses the **Completion/Reason for Non-Completion** codelist (NCOMPLT), which has NCI controlled-terminology code **C66727**.\n\n### Variable Definition\n- **Label:** Standardized Disposition Term\n- **Type:** Char\n- **Role:** Synonym Qualifier\n- **Core:** Req\n- **Controlled Terms:** C66727; C114118; C150811  \n  *(C66727 is used when DSCAT = “DISPOSITION EVENT”; C114118 when DSCAT = “PROTOCOL MILESTONE”; C150811 when DSCAT = “OTHER EVENT”)* **[Source: domains/DS/spec.md]**\n\n### Reason‑for‑Non‑Completion Values (C66727)\nThe codelist is extensible; the following two valu",
      "usage": {
        "prompt_tokens": 14844,
        "completion_tokens": 1174,
        "total_tokens": 16018
      },
      "model": "deepseek-v4-pro",
      "elapsed_s": 21.72
    },
    {
      "id": "q92",
      "category": "mixed",
      "question": "What is the ETHNIC variable in the DM domain, what controlled terminology codelist code does it use, and what are its permitted values?",
      "source_recall": 1.0,
      "source_hits": [
        "domains/DM/spec.md",
        "terminology/core/dm.md"
      ],
      "source_misses": [],
      "top5_sources": [
        "domains/DM/spec.md",
        "terminology/core/dm.md",
        "domains/DM/spec.md",
        "domains/DM/assumptions.md",
        "chapters/ch04_general_assumptions.md"
      ],
      "top5_similarities": [
        0.6371,
        0.522,
        0.5401,
        0.5725,
        0.5587
      ],
      "fact_recall": 1.0,
      "fact_hits": [
        "ETHNIC",
        "C66790",
        "HISPANIC OR LATINO"
      ],
      "fact_misses": [],
      "answer_preview": "The **ETHNIC** variable in the DM domain is defined as follows:\n\n- **Label:** Ethnicity\n- **Type:** Char\n- **Role:** Record Qualifier\n- **Core:** Perm\n- **CDISC Notes:** The ethnicity of the subject. Sponsors should refer to the FDA guidance regarding the collection of ethnicity.\n**[Source: domains/DM/spec.md]**\n\nIt uses the Controlled Terminology codelist **Ethnic Group (C66790)**.\n**[Source: domains/DM/spec.md; terminology/core/dm.md]**\n\nThe permitted values for this codelist are:\n\n| Code | CDISC Submission Value |\n|------|----------------------|\n| C17459 | HISPANIC OR LATINO |\n| C41222 | NO",
      "usage": {
        "prompt_tokens": 15862,
        "completion_tokens": 493,
        "total_tokens": 16355
      },
      "model": "deepseek-v4-pro",
      "elapsed_s": 11.12
    },
    {
      "id": "q93",
      "category": "mixed",
      "question": "In the EX domain, what is the EXDOSFRM (Dose Form) variable and its controlled terminology codelist code, and give some dose-form values from that codelist (for example a solid oral shell form or a sterile parenteral form)?",
      "source_recall": 1.0,
      "source_hits": [
        "domains/EX/spec.md",
        "terminology/core/interventions.md"
      ],
      "source_misses": [],
      "top5_sources": [
        "domains/EX/spec.md",
        "terminology/core/interventions.md",
        "domains/EC/spec.md",
        "domains/CM/spec.md",
        "domains/ML/spec.md"
      ],
      "top5_similarities": [
        0.7833,
        0.4203,
        0.7138,
        0.6844,
        0.6295
      ],
      "fact_recall": 1.0,
      "fact_hits": [
        "EXDOSFRM",
        "C66726",
        "CAPSULE",
        "INJECTION"
      ],
      "fact_misses": [],
      "answer_preview": "EXDOSFRM is defined as follows:\n\n- **Label:** Dose Form\n- **Type:** Char\n- **Role:** Variable Qualifier\n- **Core:** Expected (Exp)\n- **Description:** \"Dose form for EXTRT. Examples: 'TABLET', 'LOTION'.\" [Source: domains/EX/spec.md]\n\nThe controlled terminology codelist code for EXDOSFRM is **C66726** (Pharmaceutical Dosage Form) [Source: domains/EX/spec.md].\n\nFrom that codelist, examples of dose-form values include:\n\n- **CAPSULE** (Submission Value), C25158: \"A solid pharmaceutical dosage form that contains medicinal agent within either a hard or soft soluble container or shell, usually used fo",
      "usage": {
        "prompt_tokens": 11616,
        "completion_tokens": 791,
        "total_tokens": 12407
      },
      "model": "deepseek-v4-pro",
      "elapsed_s": 16.1
    },
    {
      "id": "q94",
      "category": "mixed",
      "question": "How does the LB domain distinguish the original result LBORRES from the standardized result LBSTRESC, what codelist does LBSTRESC reference, and what are some of the standard result values in that codelist (for example for positive/negative findings)?",
      "source_recall": 1.0,
      "source_hits": [
        "domains/LB/spec.md",
        "terminology/core/lb_part4.md"
      ],
      "source_misses": [],
      "top5_sources": [
        "domains/LB/spec.md",
        "terminology/core/lb_part4.md",
        "domains/LB/examples.md",
        "domains/LB/spec.md",
        "domains/LB/examples.md"
      ],
      "top5_similarities": [
        0.7761,
        0.569,
        0.6411,
        0.6766,
        0.6406
      ],
      "fact_recall": 1.0,
      "fact_hits": [
        "LBORRES",
        "LBSTRESC",
        "C102580",
        "NEGATIVE",
        "POSITIVE"
      ],
      "fact_misses": [],
      "answer_preview": "## Distinction Between Original (LBORRES) and Standardized (LBSTRESC) Results in LB\n\nThe LB domain (Laboratory Test Results) implements the SDTM **3‑level result framework**. LBORRES holds the result exactly as originally collected or reported, while LBSTRESC holds a standardized, harmonized character representation derived from LBORRES.\n\n- **LBORRES** (Order 19) stores the raw value from the source—e.g., “–”, “NONE”, “NEG”, “NEGATIVE”\n- **LBSTRESC** (Order 23) is populated for **every** finding (character or numeric) by copying or deriving a standard format from LBORRES. For example, if multi",
      "usage": {
        "prompt_tokens": 14967,
        "completion_tokens": 1297,
        "total_tokens": 16264
      },
      "model": "deepseek-v4-pro",
      "elapsed_s": 24.17
    },
    {
      "id": "q95",
      "category": "mixed",
      "question": "In the DD (Death Details) domain, what is the DDTEST variable and its controlled terminology codelist code, and what are some of the test names defined in that codelist (for example relating to cause of death or age at death)?",
      "source_recall": 1.0,
      "source_hits": [
        "domains/DD/spec.md",
        "terminology/core/other_part4.md"
      ],
      "source_misses": [],
      "top5_sources": [
        "domains/DD/spec.md",
        "terminology/core/other_part4.md",
        "domains/DD/spec.md",
        "terminology/core/other_part4.md",
        "VARIABLE_INDEX.md"
      ],
      "top5_similarities": [
        0.7643,
        0.6729,
        0.7509,
        0.6619,
        0.6722
      ],
      "fact_recall": 1.0,
      "fact_hits": [
        "DDTEST",
        "C116107",
        "Primary Cause of Death",
        "Age at Death"
      ],
      "fact_misses": [],
      "answer_preview": "Based on the provided context, here are the details for DDTEST and its associated controlled terminology.\n\n**DDTEST Definition**\n*   **Label:** Death Detail Assessment Name [Source: domains/DD/spec.md]\n*   **Type:** Char [Source: domains/DD/spec.md]\n*   **Role:** Synonym Qualifier [Source: domains/DD/spec.md]\n*   **Core:** Req [Source: domains/DD/spec.md]\n*   **Controlled Terms Codelist Code:** C116107 [Source: domains/DD/spec.md]\n\nThis codelist (C116107, \"SDTM Death Diagnosis and Details Test Name\") is extensible. Below are the test names defined within it, including those relating to cause o",
      "usage": {
        "prompt_tokens": 12089,
        "completion_tokens": 653,
        "total_tokens": 12742
      },
      "model": "deepseek-v4-pro",
      "elapsed_s": 12.39
    },
    {
      "id": "q96",
      "category": "mixed",
      "question": "In the FA (Findings About) domain, what is the FATEST variable and its controlled terminology codelist code, and give some example test names from that codelist (such as Diameter or Cumulative Exposure)?",
      "source_recall": 1.0,
      "source_hits": [
        "domains/FA/spec.md",
        "terminology/core/findings_about.md"
      ],
      "source_misses": [],
      "top5_sources": [
        "domains/FA/spec.md",
        "terminology/core/findings_about.md",
        "domains/FA/assumptions.md",
        "model/02_observation_classes.md",
        "domains/FA/spec.md"
      ],
      "top5_similarities": [
        0.7232,
        0.487,
        0.7102,
        0.5997,
        0.6545
      ],
      "fact_recall": 1.0,
      "fact_hits": [
        "FATEST",
        "C101833",
        "Diameter",
        "Cumulative Exposure"
      ],
      "fact_misses": [],
      "answer_preview": "## FATEST Variable in FA Domain\n\n**Variable definition** (from the FA domain specification):\n\n- **Label:** Findings About Test Name\n- **Type:** Char\n- **Controlled Terms:** C101833 (the general codelist for Findings About Test Name; therapeutic-area-specific codelists also exist)\n- **Role:** Synonym Qualifier (synonym qualifier of `FATESTCD`)\n- **Core:** Req (required)\n- **CDISC Notes:**  \n  \"Verbatim name of the test or examination used to obtain the measurement or finding. The value in FATEST cannot be longer than 40 characters. Examples: 'Severity/Intensity', 'Occurrence'. Note that control",
      "usage": {
        "prompt_tokens": 17803,
        "completion_tokens": 1944,
        "total_tokens": 19747
      },
      "model": "deepseek-v4-pro",
      "elapsed_s": 34.41
    },
    {
      "id": "q97",
      "category": "mixed",
      "question": "In the SS (Subject Status) domain, what is the SSSTRESC variable, what controlled terminology codelist does it use, and what are the standard subject-status result values in that codelist (such as for a living versus deceased subject)?",
      "source_recall": 1.0,
      "source_hits": [
        "domains/SS/spec.md",
        "terminology/core/other_part5.md"
      ],
      "source_misses": [],
      "top5_sources": [
        "domains/SS/spec.md",
        "terminology/core/other_part5.md",
        "VARIABLE_INDEX.md",
        "terminology/core/other_part5.md",
        "domains/SS/assumptions.md"
      ],
      "top5_similarities": [
        0.7309,
        0.5847,
        0.6764,
        0.5747,
        0.5833
      ],
      "fact_recall": 0.75,
      "fact_hits": [
        "SSSTRESC",
        "C124304",
        "DEAD"
      ],
      "fact_misses": [
        "ALIVE"
      ],
      "answer_preview": "Based on the context provided, here is the detailed information about the `SSSTRESC` variable and its associated controlled terminology:\n\n### Variable Definition: SSSTRESC\n\n- **Label:** Character Result/Finding in Std Format\n- **Type:** Char\n- **Role:** Result Qualifier\n- **Core:** Exp (Expected)\n- **Controlled Terms:** C124304 **[Source: domains/SS/spec.md § SSSTRESC]**\n- **CDISC Notes:** Contains the result value for all findings copied or derived from SSORRES, in a standard format. **[Source: domains/SS/spec.md § SSSTRESC]**\n\n### Controlled Terminology Codelist\n\nThe variable uses the **Subj",
      "usage": {
        "prompt_tokens": 12632,
        "completion_tokens": 997,
        "total_tokens": 13629
      },
      "model": "deepseek-v4-pro",
      "elapsed_s": 20.58
    },
    {
      "id": "q98",
      "category": "mixed",
      "question": "In the CM (Concomitant Medications) domain, what is the CMDOSU (Dose Units) variable, what controlled terminology codelist does it use, and give some unit values from that codelist (for example an international unit or a milliequivalent)?",
      "source_recall": 1.0,
      "source_hits": [
        "domains/CM/spec.md",
        "terminology/core/general_part5.md"
      ],
      "source_misses": [],
      "top5_sources": [
        "domains/CM/spec.md",
        "terminology/core/general_part5.md",
        "domains/CM/assumptions.md",
        "VARIABLE_INDEX.md",
        "domains/LB/assumptions.md"
      ],
      "top5_similarities": [
        0.7977,
        0.5497,
        0.6795,
        0.6301,
        21.1024
      ],
      "fact_recall": 1.0,
      "fact_hits": [
        "CMDOSU",
        "C71620",
        "IU",
        "mEq"
      ],
      "fact_misses": [],
      "answer_preview": "Based on the provided context, here is the definition of CMDOSU in the CM domain:\n\n**CMDOSU** stands for **Dose Units**. It is a **Char** type variable with a **Variable Qualifier** role and a **Permissible (Perm)** core status. It is used to specify the units for the dose variables `CMDOSE`, `CMDOSTOT`, or `CMDOSTXT`. Examples given in its notes are \"ng\", \"mg\", and \"mg/kg\" **[Source: domains/CM/spec.md]**.\n\nThe controlled terminology codelist used by CMDOSU is the **Unit** codelist, which has the NCI code **C71620** **[Source: domains/CM/spec.md]**.\n\nExamples of unit values appearing in the U",
      "usage": {
        "prompt_tokens": 13410,
        "completion_tokens": 1006,
        "total_tokens": 14416
      },
      "model": "deepseek-v4-pro",
      "elapsed_s": 18.94
    },
    {
      "id": "q99",
      "category": "mixed",
      "question": "In the QS (Questionnaires) domain, what is the QSCAT variable used for, what controlled terminology codelist does it reference, and give some example questionnaire short names from that codelist.",
      "source_recall": 1.0,
      "source_hits": [
        "domains/QS/spec.md",
        "terminology/core/qs_part1.md"
      ],
      "source_misses": [],
      "top5_sources": [
        "domains/QS/spec.md",
        "terminology/core/qs_part1.md",
        "domains/SUPPQUAL/examples.md",
        "domains/FT/assumptions.md",
        "domains/QS/assumptions.md"
      ],
      "top5_similarities": [
        0.785,
        0.5381,
        0.6848,
        0.701,
        0.701
      ],
      "fact_recall": 0.5,
      "fact_hits": [
        "QSCAT",
        "C100129"
      ],
      "fact_misses": [
        "ACQ",
        "ACT"
      ],
      "answer_preview": "QSCAT (Category of Question) is used to identify the specific questionnaire to which a QS record’s question belongs. It tells you which instrument (e.g., ADAS‑COG, BPI) the reported item is part of.  \n\n**Controlled terminology codelist:** C100129 – Category of Questionnaire.  [Source: domains/QS/spec.md — Controlled Terminology]  \n\n**Example questionnaire short names (submission values) from that codelist:**  \n- ADAS‑COG (Alzheimer's Disease Assessment Scale‑Cognitive Subscale)  \n- MDS‑UPDRS (Movement Disorder Society‑Unified Parkinson's Disease Rating Scale)  \n- BPI (Brief Pain Inventory)  \n\n",
      "usage": {
        "prompt_tokens": 14109,
        "completion_tokens": 1214,
        "total_tokens": 15323
      },
      "model": "deepseek-v4-pro",
      "elapsed_s": 23.25
    },
    {
      "id": "q100",
      "category": "single_domain",
      "question": "In the TA (Trial Arms) domain, what is the ARMCD variable's role and Core designation, and what is the ETCD variable used for?",
      "source_recall": 1.0,
      "source_hits": [
        "domains/TA/spec.md"
      ],
      "source_misses": [],
      "top5_sources": [
        "domains/TA/spec.md",
        "domains/TA/spec.md",
        "domains/TA/spec.md",
        "domains/TA/spec.md",
        "domains/DM/assumptions.md"
      ],
      "top5_similarities": [
        0.6516,
        0.5969,
        0.5805,
        0.575,
        0.6754
      ],
      "fact_recall": 1.0,
      "fact_hits": [
        "ARMCD",
        "Topic",
        "ETCD",
        "Element Code"
      ],
      "fact_misses": [],
      "answer_preview": "Based on the provided SDTM knowledge base, here are the answers to your questions about the TA domain.\n\n### ARMCD in the TA Domain\n\nThe `ARMCD` variable in the Trial Arms (TA) domain serves as the **Topic** variable and has a **Core** designation of **Req** (Required).\n*   **Role:** Topic\n*   **Core:** Req\n**[Source: domains/TA/spec.md]**\n\nThe variable is limited to 20 characters and does not have the same special character restrictions as `--TESTCD`. This longer maximum length is to accommodate complex codes needed for designs like crossover trials. **[Source: domains/TA/spec.md, chapters/ch0",
      "usage": {
        "prompt_tokens": 14415,
        "completion_tokens": 730,
        "total_tokens": 15145
      },
      "model": "deepseek-v4-pro",
      "elapsed_s": 17.71
    },
    {
      "id": "q101",
      "category": "mixed",
      "question": "What is the TSPARM variable in the TS domain, what is its controlled terminology codelist code, and give some example trial summary parameter names defined in that codelist.",
      "source_recall": 1.0,
      "source_hits": [
        "domains/TS/spec.md",
        "terminology/core/trial_design.md"
      ],
      "source_misses": [],
      "top5_sources": [
        "domains/TS/spec.md",
        "terminology/core/trial_design.md",
        "domains/TS/assumptions.md",
        "VARIABLE_INDEX.md",
        "domains/TS/spec.md"
      ],
      "top5_similarities": [
        0.7454,
        0.464,
        0.6272,
        0.6342,
        0.6961
      ],
      "fact_recall": 0.5,
      "fact_hits": [
        "TSPARM",
        "C67152"
      ],
      "fact_misses": [
        "Actual Number of Subjects",
        "Clinical Study Sponsor"
      ],
      "answer_preview": "The **TSPARM** variable in the TS (Trial Summary) domain holds the full, human-readable name of a trial summary parameter. It is the companion to the short code in TSPARMCD.\n\n| Attribute | Value |\n|-----------|-------|\n| **Label** | Trial Summary Parameter |\n| **Type** | Char |\n| **Role** | Synonym Qualifier |\n| **Core** | Req (Required) |\n| **Controlled Terminology** | **C67152** – Trial Summary Parameter Test Name **[Source: domains/TS/spec.md – TSPARM, Controlled Terminology link, and [6]]** |\n| **CDISC Notes** | The value cannot exceed 40 characters. Examples: “Planned Minimum Age of Subje",
      "usage": {
        "prompt_tokens": 11419,
        "completion_tokens": 1879,
        "total_tokens": 13298
      },
      "model": "deepseek-v4-pro",
      "elapsed_s": 31.64
    },
    {
      "id": "q102",
      "category": "mixed",
      "question": "In the VS (Vital Signs) domain, what is the VSPOS variable, what controlled terminology codelist does it use, and list some subject-position values from that codelist (for example a face-down position or a semi-sitting bed position)?",
      "source_recall": 1.0,
      "source_hits": [
        "domains/VS/spec.md",
        "terminology/core/interventions.md"
      ],
      "source_misses": [],
      "top5_sources": [
        "domains/VS/spec.md",
        "terminology/core/interventions.md",
        "domains/VS/spec.md",
        "VARIABLE_INDEX.md",
        "domains/CV/spec.md"
      ],
      "top5_similarities": [
        0.756,
        0.5398,
        0.6601,
        0.5644,
        0.6317
      ],
      "fact_recall": 1.0,
      "fact_hits": [
        "VSPOS",
        "C71148",
        "PRONE",
        "FOWLERS"
      ],
      "fact_misses": [],
      "answer_preview": "**VSPOS** is a **Record Qualifier** variable in the **VS (Vital Signs)** Findings domain.  \n\n| Attribute | Value |\n|-----------|-------|\n| **Label** | Vital Signs Position of Subject |\n| **Type** | Char |\n| **Controlled Terminology Codelist** | **C71148 (Position)** |\n| **Role** | Record Qualifier |\n| **Core** | Perm |\n| **CDISC Notes** | Position of the subject during a measurement or examination. Examples: \"SUPINE\", \"STANDING\", \"SITTING\". |\n\n**Source:** *domains/VS/spec.md*  \n\n---\n\n### Codelist: Position (C71148)\n\nThe codelist is extensible and contains terms that describe the subject’s posi",
      "usage": {
        "prompt_tokens": 11285,
        "completion_tokens": 1114,
        "total_tokens": 12399
      },
      "model": "deepseek-v4-pro",
      "elapsed_s": 18.78
    }
  ],
  "tag": "g_on"
}