{
  "summary": {
    "n_questions": 102,
    "model": null,
    "threshold": 0.85,
    "source_recall_avg": 0.9902,
    "source_recall_by_category": {
      "concept": 1.0,
      "cross_domain": 0.96,
      "mixed": 1.0,
      "single_domain": 1.0
    },
    "fact_recall_avg": 0.9342,
    "fact_recall_by_category": {
      "concept": 0.952,
      "cross_domain": 0.9,
      "mixed": 0.91,
      "single_domain": 0.9718
    },
    "overall": 0.9622,
    "total_tokens": 1602344,
    "verdict": "PASS",
    "top_k": 15,
    "structured_lookup": true,
    "hybrid": {
      "fusion": "rrf",
      "alpha": null
    },
    "prompt_guardrail": true
  },
  "results": [
    {
      "id": "q01",
      "category": "single_domain",
      "question": "What is AETERM and what are its variable attributes in the AE domain?",
      "source_recall": 1.0,
      "source_hits": [
        "domains/AE/spec.md"
      ],
      "source_misses": [],
      "top5_sources": [
        "domains/AE/spec.md",
        "domains/AE/spec.md",
        "domains/AE/spec.md",
        "domains/AE/spec.md",
        "domains/AE/assumptions.md"
      ],
      "top5_similarities": [
        0.5884,
        0.5778,
        0.5484,
        0.5477,
        0.6641
      ],
      "fact_recall": 1.0,
      "fact_hits": [
        "Topic",
        "Char",
        "Req",
        "Verbatim"
      ],
      "fact_misses": [],
      "answer_preview": "Based on the provided context, here are the variable attributes for **AETERM** in the AE domain:\n\n- **Label:** Reported Term for the Adverse Event\n- **Type:** Char\n- **Role:** Topic\n- **Core:** Req\n- **CDISC Notes:** Verbatim name of the event.\n\n**[Source: domains/AE/spec.md]**",
      "usage": {
        "prompt_tokens": 13939,
        "completion_tokens": 326,
        "total_tokens": 14265
      },
      "model": "deepseek-v4-pro",
      "answer": "Based on the provided context, here are the variable attributes for **AETERM** in the AE domain:\n\n- **Label:** Reported Term for the Adverse Event\n- **Type:** Char\n- **Role:** Topic\n- **Core:** Req\n- **CDISC Notes:** Verbatim name of the event.\n\n**[Source: domains/AE/spec.md]**",
      "elapsed_s": 8.44
    },
    {
      "id": "q02",
      "category": "single_domain",
      "question": "What are the required (Core=Req) variables in the DM domain?",
      "source_recall": 1.0,
      "source_hits": [
        "domains/DM/spec.md"
      ],
      "source_misses": [],
      "top5_sources": [
        "domains/DM/spec.md",
        "domains/DM/spec.md",
        "domains/DM/spec.md",
        "domains/DM/spec.md",
        "chapters/ch04_general_assumptions.md"
      ],
      "top5_similarities": [
        0.4813,
        0.4255,
        0.4052,
        0.404,
        0.5064
      ],
      "fact_recall": 0.5714,
      "fact_hits": [
        "STUDYID",
        "DOMAIN",
        "USUBJID",
        "SUBJID"
      ],
      "fact_misses": [
        "SITEID",
        "SEX",
        "COUNTRY"
      ],
      "answer_preview": "Based on the DM domain specification, the following variables have a Core designation of **Req** (Required). Required variables must always be included in the dataset and cannot be null for any record [Source: chapters/ch04_general_assumptions.md].\n\n**DM Required Variables:**\n\n*   **STUDYID** (Order: 1)\n    *   **Label:** Study Identifier\n    *   **Type:** Char\n    *   **Role:** Identifier\n    *   **CDISC Notes:** Unique identifier for a study.\n\n*   **DOMAIN** (Order: 2)\n    *   **Label:** Domain Abbreviation\n    *   **Type:** Char\n    *   **Role:** Identifier\n    *   **CDISC Notes:** Two-char",
      "usage": {
        "prompt_tokens": 13731,
        "completion_tokens": 911,
        "total_tokens": 14642
      },
      "model": "deepseek-v4-pro",
      "answer": "Based on the DM domain specification, the following variables have a Core designation of **Req** (Required). Required variables must always be included in the dataset and cannot be null for any record [Source: chapters/ch04_general_assumptions.md].\n\n**DM Required Variables:**\n\n*   **STUDYID** (Order: 1)\n    *   **Label:** Study Identifier\n    *   **Type:** Char\n    *   **Role:** Identifier\n    *   **CDISC Notes:** Unique identifier for a study.\n\n*   **DOMAIN** (Order: 2)\n    *   **Label:** Domain Abbreviation\n    *   **Type:** Char\n    *   **Role:** Identifier\n    *   **CDISC Notes:** Two-character abbreviation for the domain.\n    *   [Source: domains/DM/spec.md]\n\n*   **USUBJID** (Order: 3)\n    *   **Label:** Unique Subject Identifier\n    *   **Type:** Char\n    *   **Role:** Identifier\n    *   **CDISC Notes:** Identifier used to uniquely identify a subject across all studies for all applications or submissions involving the product.\n\n*   **SUBJID** (Order: 4)\n    *   **Label:** Subject Identifier for the Study\n    *   **Type:** Char\n    *   **Role:** Identifier\n    *   **CDISC Notes:** Subject identifier used in the course of the study.\n\n*   **RFSTDTC** (Order: 5)\n    *   **Label:** Subject Reference Start Date/Time\n    *   **Type:** Char\n    *   **Role:** Record Qualifier\n    *   **CDISC Notes:** Reference Start Date/time for a study. For many single epoch studies, this is the date and time when the subject first received the study product. For studies with multiple epochs, this is the date and time when the subject first received the study product for the epoch in question.\n\n*   **RFENDTC** (Order: 6)\n    *   **Label:** Subject Reference End Date/Time\n    *   **Type:** Char\n    *   **Role:** Record Qualifier\n    *   **CDISC Notes:** Reference End Date/time for a study. For many single epoch studies, this is the date and time when the subject last received the study product. For studies with multiple epochs, this is the date and time when the subject last received the study product for the epoch in question.",
      "elapsed_s": 17.75
    },
    {
      "id": "q03",
      "category": "single_domain",
      "question": "What are the key assumptions for adverse event data collection and coding?",
      "source_recall": 1.0,
      "source_hits": [
        "domains/AE/assumptions.md"
      ],
      "source_misses": [],
      "top5_sources": [
        "domains/AE/assumptions.md",
        "domains/FA/examples.md",
        "domains/AE/assumptions.md",
        "domains/AE/assumptions.md",
        "domains/AE/assumptions.md"
      ],
      "top5_similarities": [
        0.5919,
        0.5041,
        0.5608,
        0.5755,
        0.5716
      ],
      "fact_recall": 1.0,
      "fact_hits": [
        "AETERM",
        "MedDRA",
        "AEDECOD"
      ],
      "fact_misses": [],
      "answer_preview": "Based on the SDTMIG v3.4 Adverse Events domain assumptions, the following are the key expectations for how adverse event (AE) data are collected and coded.\n\n### 1. Scope and Method of Collection\nThe AE dataset must include “any untoward medical occurrence” (ICH E2A). Sponsors may extend or limit the scope of collection in line with the protocol. Adverse events can be captured in two ways: as **free‑text verbatim entries** or using a **prespecified list of terms**.\n**[Source: domains/AE/assumptions.md – item_1]**\n\n### 2. Verbatim Term and Coding\n- **AETERM** (verbatim term) is the topic variabl",
      "usage": {
        "prompt_tokens": 16399,
        "completion_tokens": 3067,
        "total_tokens": 19466
      },
      "model": "deepseek-v4-pro",
      "answer": "Based on the SDTMIG v3.4 Adverse Events domain assumptions, the following are the key expectations for how adverse event (AE) data are collected and coded.\n\n### 1. Scope and Method of Collection\nThe AE dataset must include “any untoward medical occurrence” (ICH E2A). Sponsors may extend or limit the scope of collection in line with the protocol. Adverse events can be captured in two ways: as **free‑text verbatim entries** or using a **prespecified list of terms**.\n**[Source: domains/AE/assumptions.md – item_1]**\n\n### 2. Verbatim Term and Coding\n- **AETERM** (verbatim term) is the topic variable; it is required and must always have a value.\n- **AEMODIFY** is permissible and is populated if the sponsor’s procedure allows editing the verbatim term for coding purposes.\n- **AEDECOD** (preferred term) is derived from a standard coding dictionary (e.g., MedDRA) and is required.\n- **AEBODSYS** (system organ class) is populated from the dictionary; this SOC may differ from the dictionary’s primary SOC.\nThe dictionary name and version must be supplied in the Define‑XML external codelist element.\n**[Source: domains/AE/assumptions.md – item_2]**\n\n### 3. Prespecified (Solicited) Events and Occurrence Data\n- If an event was **prespecified on the CRF**, **AEPRESP** should be set to **“Y”**. For free‑text events, AEPRESP is left null.\n- If it is important to know which prespecified events **did not occur**, those records must be placed in a **Findings About Events or Interventions (FA)** dataset, not in AE. The AE dataset should contain records only for events that actually happened; never include a record to indicate “no adverse events.”\n- When both solicited and free‑text events are collected, AEPRESP is “Y” for solicited events and null for free‑text.\n**[Source: domains/AE/assumptions.md – item_4]**\n\n### 4. Seriousness and Toxicity Grading\n- **Seriousness categories** (AESDTH, AESHOSP, etc.) may be populated from a leading “Serious? Yes/No” question (where a “No” answer can leave the category variables null) or by collecting each category individually, in which case **AESER** is derived.\n- The non‑ICH categories **AESCAN** (involves cancer) and **AESOD** (occurred with overdose) are available for older study designs.\n- If “Other Medically Important Serious Adverse Event” is collected, the description goes into **SUPPAE** with QNAM = **AEOSOSP**.\n- For toxicity grading, **AETOXGR** (e.g., NCI CTCAE) should be used instead of AESEV. Usually only one of AESEV or AETOXGR is populated; if both are needed, the dictionary and version must be documented.\n**[Source: domains/AE/assumptions.md – item_7(a)–(d)]**\n\n### 5. Sponsor’s Definition of an Event and Dataset Structure\nThe sponsor is responsible for defining what constitutes a single adverse event. The AE domain follows a **one‑record–per‑event‑per‑subject** rule, but the submission structure may be:\n- One summary record per event, capturing the worst severity, strongest causality, and final outcome (collapsed records).\n- Multiple records per event if severity, causality, or seriousness changes over time (each change treated as a separate event).\n- Changes in severity/causality may alternatively be represented in a **FA dataset**, while the AE record summarises the event as a whole.\n**[Source: domains/AE/assumptions.md – item_7(e)]**\n\n### 6. Timing Considerations\nWhen **EPOCH** is included in AE, it must reflect the **start of the adverse event** (based on AESTDTC, not AEENDTC). The Define‑XML computational method should describe how epoch assignment is handled when start dates coincide with epoch boundaries.\n**[Source: domains/AE/assumptions.md – item_8]**\n\nThese assumptions collectively govern how adverse event data are captured, coded, and structured in the AE domain, and how related occurrence or severity data may be placed in FA or SUPPAE when they don’t describe the event as a whole.",
      "elapsed_s": 58.53
    },
    {
      "id": "q04",
      "category": "single_domain",
      "question": "What is the purpose of the TV (Trial Visits) domain and what variables does it contain?",
      "source_recall": 1.0,
      "source_hits": [
        "domains/TV/spec.md"
      ],
      "source_misses": [],
      "top5_sources": [
        "domains/TV/spec.md",
        "domains/TV/spec.md",
        "domains/TV/spec.md",
        "domains/TV/spec.md",
        "domains/SV/assumptions.md"
      ],
      "top5_similarities": [
        0.5894,
        0.4733,
        0.4706,
        0.47,
        0.6873
      ],
      "fact_recall": 1.0,
      "fact_hits": [
        "VISITNUM",
        "VISIT"
      ],
      "fact_misses": [],
      "answer_preview": "The **Trial Visits (TV)** domain is a **Trial Design dataset** that describes the protocol‑defined planned schedule of subject encounters (clinical visits). Its primary purposes are:\n\n* To define the planned visit names, numbers, and start‑/end‑timing rules for every arm (or, when schedules are arm‑independent, for the overall trial).\n* To serve as the reference against which actual subject visits (captured in the **Subject Visits (SV)** domain) are compared, allowing reviewers to identify planned but missed visits and departures from the planned timing.  \n  **[Source: domains/TV/assumptions.m",
      "usage": {
        "prompt_tokens": 14229,
        "completion_tokens": 2544,
        "total_tokens": 16773
      },
      "model": "deepseek-v4-pro",
      "answer": "The **Trial Visits (TV)** domain is a **Trial Design dataset** that describes the protocol‑defined planned schedule of subject encounters (clinical visits). Its primary purposes are:\n\n* To define the planned visit names, numbers, and start‑/end‑timing rules for every arm (or, when schedules are arm‑independent, for the overall trial).\n* To serve as the reference against which actual subject visits (captured in the **Subject Visits (SV)** domain) are compared, allowing reviewers to identify planned but missed visits and departures from the planned timing.  \n  **[Source: domains/TV/assumptions.md – overview; domains/SV/assumptions.md – item_1]**\n* To standardise the description of visit schedules so that study designs can be reviewed, compared across trials, and linked to the trial arms (TA) and epochs (TE).  \n  **[Source: domains/TV/assumptions.md – overview; domains/TV/examples.md – Trial Visits Issues]**\n\n---\n\n### Variables in the TV Domain\n\nThe TV dataset is built on a **“one record per planned visit per arm”** structure (or, when visits are identical for all arms, one record per planned visit). The following variables are documented in the retrieved context.\n\n| Variable | Order | Label | Type | Role | Core | CDISC Notes / Source |\n|----------|-------|-------|------|------|------|-----------------------|\n| **VISIT** | 4 | Visit Name | Char | Synonym Qualifier | Req | Description of clinical encounter. Used alongside VISITNUM and/or VISITDY as a text description. **[Source: domains/TV/spec.md – VISIT]** |\n| **TVSTRL** | 8 | Visit Start Rule | Char | Rule | Req | Rule describing when the visit starts, expressed relative to elements or epochs (e.g., “1 week after start of Treatment Epoch”). **[Source: domains/TV/spec.md – TVSTRL]** |\n| **TVENRL** | – | Visit End Rule | Char | Rule | Perm | Rule describing when the visit ends. **[Source: VARIABLE_INDEX.md – TV — Trial Visits]** |\n\nAdditional variables that appear in the TV dataset (but are not fully specified in the retrieved context) include:\n\n* **STUDYID**, **DOMAIN** – Standard identifier variables (shown in all TV examples).  \n  **[Source: domains/TV/examples.md – Example 1]**\n* **VISITNUM** – Numeric visit number used for sorting; must match the planned chronological order of visits. **[Source: chapters/ch04_general_assumptions.md – §4.4.5; domains/TV/examples.md – Example 1]**\n* **VISITDY** – Planned study day of the **start** of the visit. **[Source: chapters/ch04_general_assumptions.md – §4.4.5]**\n* **ARMCD** / **ARM** – Arm code and name; populated when the visit schedule differs by arm. **[Source: domains/TV/assumptions.md – item_1]**\n\n> Note: The full specification of TV also includes variables such as **TABRANCH**, **TAETORD**, etc., but these are not explicitly cited in the retrieved context. For a complete list, refer to the Trial Visit model definition in [model/05_study_level_data.md](model/05_study_level_data.md).",
      "elapsed_s": 49.81
    },
    {
      "id": "q05",
      "category": "single_domain",
      "question": "In the PE (Physical Examination) domain, what is the structure of the dataset, what is the role of the PETESTCD variable, and what value should PETESTCD have when the results of the entire physical examination are represented in one record?",
      "source_recall": 1.0,
      "source_hits": [
        "domains/PE/spec.md"
      ],
      "source_misses": [],
      "top5_sources": [
        "domains/PE/spec.md",
        "domains/PE/spec.md",
        "domains/PE/spec.md",
        "domains/PE/spec.md",
        "VARIABLE_INDEX.md"
      ],
      "top5_similarities": [
        0.731,
        0.7026,
        0.5645,
        0.5643,
        0.6909
      ],
      "fact_recall": 1.0,
      "fact_hits": [
        "PETESTCD",
        "Topic",
        "PHYSEXAM"
      ],
      "fact_misses": [],
      "answer_preview": "Based on the provided context, here are the answers to your questions:\n\n**1. Structure of the PE Domain**\nThe PE domain is structured as **\"One record per finding per time point per physical exam body system per subject\"**. It belongs to the **Findings** general observation class. **[Source: chapters/ch03_submitting_data.md]**\n\n**2. Role of the PETESTCD Variable**\nThe **PETESTCD** variable serves as the **Topic** variable for the PE domain.\nIts full attributes are:\n*   **Label:** Body System Examined Short Name\n*   **Type:** Char\n*   **Role:** Topic\n*   **Core:** Req\n**[Source: domains/PE/spec",
      "usage": {
        "prompt_tokens": 16877,
        "completion_tokens": 533,
        "total_tokens": 17410
      },
      "model": "deepseek-v4-pro",
      "answer": "Based on the provided context, here are the answers to your questions:\n\n**1. Structure of the PE Domain**\nThe PE domain is structured as **\"One record per finding per time point per physical exam body system per subject\"**. It belongs to the **Findings** general observation class. **[Source: chapters/ch03_submitting_data.md]**\n\n**2. Role of the PETESTCD Variable**\nThe **PETESTCD** variable serves as the **Topic** variable for the PE domain.\nIts full attributes are:\n*   **Label:** Body System Examined Short Name\n*   **Type:** Char\n*   **Role:** Topic\n*   **Core:** Req\n**[Source: domains/PE/spec.md, VARIABLE_INDEX.md]**\n\n**3. Value of PETESTCD for a Whole-Exam Record**\nWhen the results of the entire physical examination are represented in a single record, the value of **PETESTCD** should be **\"PHYSEXAM\"**. Correspondingly, the value of the sister variable PETEST should be \"Physical Examination\". **[Source: domains/PE/spec.md]**",
      "elapsed_s": 10.34
    },
    {
      "id": "q21",
      "category": "single_domain",
      "question": "What is the LBTESTCD variable in the LB (Laboratory Test Results) domain? Describe its role, controlled terminology codelist code, and naming constraints.",
      "source_recall": 1.0,
      "source_hits": [
        "domains/LB/spec.md"
      ],
      "source_misses": [],
      "top5_sources": [
        "domains/LB/spec.md",
        "terminology/core/lb_part2.md",
        "domains/LB/spec.md",
        "domains/LB/assumptions.md",
        "domains/LB/examples.md"
      ],
      "top5_similarities": [
        0.7837,
        0.5222,
        0.7118,
        0.7499,
        0.6639
      ],
      "fact_recall": 1.0,
      "fact_hits": [
        "Topic",
        "C65047",
        "8 characters"
      ],
      "fact_misses": [],
      "answer_preview": "In the **LB (Laboratory Test Results)** domain, **LBTESTCD** is the short name that identifies a specific lab test or examination.  \nIt is a **Topic variable** that specifies the focus of the observation.\n\n- **Role:** Topic  \n- **Controlled Terms codelist:** C65047 (*Laboratory Test Code*) [[1], [3]]  \n- **Core:** Required (Req)  \n\n**Naming constraints** (as stated in the CDISC notes):  \n- Maximum length is **8 characters**.  \n- Cannot **start with a number** (e.g., `1TEST` is invalid).  \n- May contain only **letters, numbers, or underscores**. No other characters are permitted.  \n- Examples i",
      "usage": {
        "prompt_tokens": 15863,
        "completion_tokens": 602,
        "total_tokens": 16465
      },
      "model": "deepseek-v4-pro",
      "answer": "In the **LB (Laboratory Test Results)** domain, **LBTESTCD** is the short name that identifies a specific lab test or examination.  \nIt is a **Topic variable** that specifies the focus of the observation.\n\n- **Role:** Topic  \n- **Controlled Terms codelist:** C65047 (*Laboratory Test Code*) [[1], [3]]  \n- **Core:** Required (Req)  \n\n**Naming constraints** (as stated in the CDISC notes):  \n- Maximum length is **8 characters**.  \n- Cannot **start with a number** (e.g., `1TEST` is invalid).  \n- May contain only **letters, numbers, or underscores**. No other characters are permitted.  \n- Examples include `ALT` and `LDH`. [[1]]\n\nThe full test name is recorded in **LBTEST** (a Synonym Qualifier with codelist C67154), while LBTESTCD provides a consistent, machine‑readable short code suitable for transposing datasets or column naming. [[1], [8]]",
      "elapsed_s": 11.57
    },
    {
      "id": "q22",
      "category": "single_domain",
      "question": "What is the VS (Vital Signs) domain and what are some examples of VSTESTCD values? Include the codelist code.",
      "source_recall": 1.0,
      "source_hits": [
        "domains/VS/spec.md"
      ],
      "source_misses": [],
      "top5_sources": [
        "domains/VS/spec.md",
        "terminology/core/vs.md",
        "domains/VS/spec.md",
        "VARIABLE_INDEX.md",
        "domains/VS/assumptions.md"
      ],
      "top5_similarities": [
        0.7384,
        0.5465,
        0.6467,
        0.6305,
        0.6914
      ],
      "fact_recall": 1.0,
      "fact_hits": [
        "Findings",
        "VSTESTCD",
        "C66741"
      ],
      "fact_misses": [],
      "answer_preview": "The VS (Vital Signs) domain is a **Findings** observation class domain used to represent vital signs measurements collected during a study, such as systolic blood pressure, diastolic blood pressure, body mass index, heart rate, and temperature. **[Source: [1], [4], [5]]**\n\nVital signs tests are identified using the short name variable **VSTESTCD**, which must be an 8‑character or shorter code (letters, numbers, underscores only). Examples of standard VSTESTCD values include:  \n- `SYSBP` (Systolic Blood Pressure)  \n- `DIABP` (Diastolic Blood Pressure)  \n- `BMI` (Body Mass Index)  \n\nThe controll",
      "usage": {
        "prompt_tokens": 14142,
        "completion_tokens": 883,
        "total_tokens": 15025
      },
      "model": "deepseek-v4-pro",
      "answer": "The VS (Vital Signs) domain is a **Findings** observation class domain used to represent vital signs measurements collected during a study, such as systolic blood pressure, diastolic blood pressure, body mass index, heart rate, and temperature. **[Source: [1], [4], [5]]**\n\nVital signs tests are identified using the short name variable **VSTESTCD**, which must be an 8‑character or shorter code (letters, numbers, underscores only). Examples of standard VSTESTCD values include:  \n- `SYSBP` (Systolic Blood Pressure)  \n- `DIABP` (Diastolic Blood Pressure)  \n- `BMI` (Body Mass Index)  \n\nThe controlled terminology for VSTESTCD is **Vital Signs Test Code (C66741)**. **[Source: [3], [1]]**",
      "elapsed_s": 19.15
    },
    {
      "id": "q23",
      "category": "single_domain",
      "question": "In the CM (Concomitant Medications) domain, what is the CMTRT variable and what observation class does CM belong to?",
      "source_recall": 1.0,
      "source_hits": [
        "domains/CM/spec.md"
      ],
      "source_misses": [],
      "top5_sources": [
        "domains/CM/spec.md",
        "domains/CM/spec.md",
        "domains/CM/spec.md",
        "domains/CM/spec.md",
        "domains/CM/assumptions.md"
      ],
      "top5_similarities": [
        0.6736,
        0.6034,
        0.5926,
        0.5843,
        0.6595
      ],
      "fact_recall": 1.0,
      "fact_hits": [
        "CMTRT",
        "Interventions",
        "Topic",
        "Req"
      ],
      "fact_misses": [],
      "answer_preview": "### CMTRT Variable\n\n**CMTRT** is the Reported Name of Drug, Med, or Therapy, and serves as the topic variable for the CM domain.\n\n- **Label:** Reported Name of Drug, Med, or Therapy\n- **Type:** Char\n- **Role:** Topic\n- **Core:** Req\n- **Controlled Terms:** (none listed)\n\n**CDISC Notes:** \"Verbatim medication name that is either preprinted or collected on a CRF.\" **[Source: domains/CM/spec.md]**\n\nAccording to the CM domain assumptions, CMTRT must always have a value and should only include the medication/therapy name—not dosage, formulation, or other qualifying information. For example, \"ASPIRI",
      "usage": {
        "prompt_tokens": 14553,
        "completion_tokens": 644,
        "total_tokens": 15197
      },
      "model": "deepseek-v4-pro",
      "answer": "### CMTRT Variable\n\n**CMTRT** is the Reported Name of Drug, Med, or Therapy, and serves as the topic variable for the CM domain.\n\n- **Label:** Reported Name of Drug, Med, or Therapy\n- **Type:** Char\n- **Role:** Topic\n- **Core:** Req\n- **Controlled Terms:** (none listed)\n\n**CDISC Notes:** \"Verbatim medication name that is either preprinted or collected on a CRF.\" **[Source: domains/CM/spec.md]**\n\nAccording to the CM domain assumptions, CMTRT must always have a value and should only include the medication/therapy name—not dosage, formulation, or other qualifying information. For example, \"ASPIRIN 100MG TABLET\" is not a valid value; instead it should be expressed as CMTRT = \"ASPIRIN\" with dose, unit, and form captured in CMDOSE, CMDOSU, and CMDOSFRM respectively. When referring to a prespecified group of medications/therapies, CMTRT contains the description of the group used to solicit the occurrence response. **[Source: domains/CM/assumptions.md, item 2]**\n\n### CM Domain — Observation Class\n\nCM belongs to the **Interventions** observation class.\n\nThe domain is explicitly described as \"An interventions domain that contains concomitant and prior medications used by the subject\" in the domain overview and its specification identifies it as \"Concomitant/Prior Medications — Interventions.\" **[Source: domains/CM/assumptions.md, overview]** The variable index also categorizes CM under the Interventions class heading. **[Source: VARIABLE_INDEX.md]**",
      "elapsed_s": 12.59
    },
    {
      "id": "q24",
      "category": "single_domain",
      "question": "What is the EX (Exposure) domain used for and what is the Topic variable EXTRT?",
      "source_recall": 1.0,
      "source_hits": [
        "domains/EX/spec.md"
      ],
      "source_misses": [],
      "top5_sources": [
        "domains/EX/spec.md",
        "domains/EX/spec.md",
        "domains/EX/spec.md",
        "domains/EX/spec.md",
        "domains/EX/assumptions.md"
      ],
      "top5_similarities": [
        0.5483,
        0.5451,
        0.5409,
        0.537,
        0.6559
      ],
      "fact_recall": 1.0,
      "fact_hits": [
        "EXTRT",
        "Interventions",
        "protocol-specified"
      ],
      "fact_misses": [],
      "answer_preview": "The **EX (Exposure)** domain is used to represent **protocol-specified study treatment exposures**. It covers any treatment that is defined in the protocol, including investigational products, active comparators, and placebo.   \n- EX is typically a **derived dataset** — collected administration data (e.g., number of tablets, volume infused) are converted to records that reflect the protocol‑intended dose.  \n- The domain contains **one record per constant‑dosing interval per subject**, where the sponsor defines the interval.  \n- It is **required** for all studies that include any protocol‑speci",
      "usage": {
        "prompt_tokens": 13671,
        "completion_tokens": 1030,
        "total_tokens": 14701
      },
      "model": "deepseek-v4-pro",
      "answer": "The **EX (Exposure)** domain is used to represent **protocol-specified study treatment exposures**. It covers any treatment that is defined in the protocol, including investigational products, active comparators, and placebo.   \n- EX is typically a **derived dataset** — collected administration data (e.g., number of tablets, volume infused) are converted to records that reflect the protocol‑intended dose.  \n- The domain contains **one record per constant‑dosing interval per subject**, where the sponsor defines the interval.  \n- It is **required** for all studies that include any protocol‑specified treatment.  \n- Treatments that are **not** protocol‑specified (e.g., concomitant medications) are represented in the CM domain or another appropriate Interventions domain.  \n\n**[Source: [6] domains/EX/assumptions.md – item_1]**  \n**[Source: [4] domains/EX/spec.md – EXCAT, EXDOSTXT; [6] domains/EX/assumptions.md – item_1a, 1c]**\n\n**EXTRT** (Name of Treatment) is the **topic variable** of the EX domain.  \n- **Label:** Name of Treatment  \n- **Type:** Char  \n- **Role:** Topic  \n- **Core:** Required (Req)  \n- **Controlled Terms:** None (sponsor‑defined)  \n- **Definition:** It holds the **name of the protocol‑specified study treatment** in a pure form — **no dosage, formulation, or other qualifying information** is included.  \n  For example, the value `\"ASPIRIN\"` is correct; `\"ASPIRIN 100MG TABLET\"` is not.  \n- For placebo, EXTRT must be `\"PLACEBO\"` (with EXDOSE = `\"0\"`).  \n\n**[Source: [5] domains/EX/assumptions.md – item_2]**  \n**[Source: [9] VARIABLE_INDEX.md – EX → EXTRT row]**",
      "elapsed_s": 20.92
    },
    {
      "id": "q25",
      "category": "single_domain",
      "question": "In the MH (Medical History) domain, what is the role of MHTERM and what assumptions guide medical history data collection?",
      "source_recall": 1.0,
      "source_hits": [
        "domains/MH/assumptions.md"
      ],
      "source_misses": [],
      "top5_sources": [
        "domains/MH/spec.md",
        "domains/MH/spec.md",
        "domains/MH/spec.md",
        "domains/MH/spec.md",
        "domains/MH/assumptions.md"
      ],
      "top5_similarities": [
        0.6764,
        0.6118,
        0.5939,
        0.5859,
        0.7369
      ],
      "fact_recall": 1.0,
      "fact_hits": [
        "MHTERM",
        "Topic",
        "Verbatim"
      ],
      "fact_misses": [],
      "answer_preview": "**Role of MHTERM**  \nMHTERM is the **Topic** variable for the Medical History (MH) domain. It captures the verbatim term collected for the medical condition or event, or the prespecified term used to solicit information about the occurrence of a group of conditions/events. MHTERM is required (Core: Req) and must always have a value. **[Source: domains/MH/spec.md – MHTERM]**\n\n**Assumptions Guiding MH Data Collection**  \nThe primary assumption governing how MH data are collected is **assumption 4** (Prespecified terms; presence or absence of events). Key points:\n\n- MH data may be collected by **",
      "usage": {
        "prompt_tokens": 14453,
        "completion_tokens": 1331,
        "total_tokens": 15784
      },
      "model": "deepseek-v4-pro",
      "answer": "**Role of MHTERM**  \nMHTERM is the **Topic** variable for the Medical History (MH) domain. It captures the verbatim term collected for the medical condition or event, or the prespecified term used to solicit information about the occurrence of a group of conditions/events. MHTERM is required (Core: Req) and must always have a value. **[Source: domains/MH/spec.md – MHTERM]**\n\n**Assumptions Guiding MH Data Collection**  \nThe primary assumption governing how MH data are collected is **assumption 4** (Prespecified terms; presence or absence of events). Key points:\n\n- MH data may be collected by **free text** or by a **prespecified list** of terms.  \n- **MHPRESP** (Pre-Specified) and **MHOCCUR** (Occurrence) are used together when a prespecified list is used:\n  - `MHPRESP = \"Y\"` indicates the term was prespecified.\n  - `MHOCCUR = \"Y\"` means the event occurred; `\"N\"` means it did not.  \n- For **spontaneously reported events** (free text), both MHPRESP and MHOCCUR should be **null**.  \n- **MHSTAT** and **MHREASND** capture situations where a prespecified question had no response (e.g., `MHSTAT = \"NOT DONE\"`, with a reason in MHREASND).  \n- A summary table clarifies all combinations:\n\n| Situation | MHPRESP | MHOCCUR | MHSTAT |\n|-----------|---------|---------|--------|\n| Spontaneously reported event occurred | null | null | null |\n| Pre-specified event occurred | Y | Y | null |\n| Pre-specified event did not occur | Y | N | null |\n| Pre-specified event has no response | Y | null | NOT DONE |\n\n- Do **not** include a record in MH for a subject or category where “no medical history” was explicitly recorded.  \n\n**[Source: domains/MH/assumptions.md – item_4]**\n\nAdditional assumptions support the collection process:  \n- **Assumption 2** states that MHTERM is the topic variable and must be populated; coded terms (MHDECOD) and body system (MHBODSYS) are derived from a standard dictionary if coding is performed. **[Source: domains/MH/assumptions.md – item_2]**  \n- **Assumption 3** allows optional categorization using MHCAT/MHSCAT to reflect CRF modules (e.g., “General Medical History”, “Risk Factors”), but the categorization must not be a single generic group that duplicates the domain code. **[Source: domains/MH/assumptions.md – item_3]**\n\nTogether, these assumptions define how MH data should be recorded: a verbatim or prespecified term in MHTERM, with MHPRESP and MHOCCUR capturing the prespecified/solicited nature of the event, and optional grouping via MHCAT/MHSCAT.",
      "elapsed_s": 24.65
    },
    {
      "id": "q26",
      "category": "single_domain",
      "question": "Describe the EG (ECG Test Results) domain structure and the EGTESTCD variable, including its controlled terminology codelist codes.",
      "source_recall": 1.0,
      "source_hits": [
        "domains/EG/spec.md"
      ],
      "source_misses": [],
      "top5_sources": [
        "domains/EG/spec.md",
        "terminology/core/eg_part3.md",
        "terminology/core/eg_part2.md",
        "domains/EG/spec.md",
        "VARIABLE_INDEX.md"
      ],
      "top5_similarities": [
        0.7263,
        0.5879,
        0.5242,
        0.7253,
        0.6737
      ],
      "fact_recall": 1.0,
      "fact_hits": [
        "EGTESTCD",
        "Findings",
        "C71153"
      ],
      "fact_misses": [],
      "answer_preview": "The EG (ECG Test Results) domain is a **Findings** domain used to represent electrocardiographic measurements, waveforms, interpretations, and other findings collected during a study **[Source: domains/EG/spec.md, VARIABLE_INDEX.md § EG – ECG Test Results (Findings)]**. Like all Findings domains, EG is structured around a **Topic variable** (EGTESTCD) that identifies the test or examination, a **Result Qualifier** (EGORRES / EGSTRESC) to hold findings in original and standard formats, and a set of **Identifier**, **Grouping Qualifier**, **Record Qualifier**, and **Timing** variables that provi",
      "usage": {
        "prompt_tokens": 16360,
        "completion_tokens": 2292,
        "total_tokens": 18652
      },
      "model": "deepseek-v4-pro",
      "answer": "The EG (ECG Test Results) domain is a **Findings** domain used to represent electrocardiographic measurements, waveforms, interpretations, and other findings collected during a study **[Source: domains/EG/spec.md, VARIABLE_INDEX.md § EG – ECG Test Results (Findings)]**. Like all Findings domains, EG is structured around a **Topic variable** (EGTESTCD) that identifies the test or examination, a **Result Qualifier** (EGORRES / EGSTRESC) to hold findings in original and standard formats, and a set of **Identifier**, **Grouping Qualifier**, **Record Qualifier**, and **Timing** variables that provide context. Key structural elements include:\n\n- **Identifiers:** STUDYID, USUBJID, EGSEQ, EGGRPID, EGREFID, EGSPID, EGBEATNO  \n- **Topic:** EGTESTCD (short test name, with EGTEST as its Synonym Qualifier)  \n- **Grouping Qualifiers:** EGCAT, EGSCAT  \n- **Record Qualifiers:** EGPOS (position), EGORRES, EGORRESU, EGSTRESC, EGSTRESN, EGSTRESU, EGSTAT, EGREASND, EGXFN, EGNAM, EGMETHOD, EGLEAD, EGLOBXFL, EGBLFL, EGDRVFL, EGEVAL, EGEVALID, EGCLSIG, EGREPNUM  \n- **Timing:** EGDTC, EGDY, EGTPT, EGTPTNUM, EGELTM, EGTPTREF, EGRFTDTC  \n\nThe domain specification and complete variable list are given in **[Source: domains/EG/spec.md, VARIABLE_INDEX.md]**.\n\n---\n\n### EGTESTCD – Topic Variable & Controlled Terminology\n\n**Variable Definition**\n\n| Property | Value |\n|----------|-------|\n| **Label** | ECG Test or Examination Short Name |\n| **Type** | Char |\n| **Role** | Topic |\n| **Core** | Req |\n| **Controlled Terms** | `C71153` (ECG Test Code) **and** `C120523` (Holter ECG Test Code) |\n| **CDISC Notes** | Short name of the measurement, test, or examination described in EGTEST. It can be used as a column name when converting data from vertical to horizontal format. The value cannot exceed 8 characters, cannot start with a number (e.g., “1TEST” is invalid), and can contain only letters, numbers, or underscores. Examples: “PRAG”, “QRSAG”. Two separate codelists are used: one for tests based on standard 10‑second ECGs and one for Holter‑based tests. |\n\n**[Source: domains/EG/spec.md – EGTESTCD entry]**\n\n**Codelist Codes and Purpose**\n\n- **C71153 (ECG Test Code)** – Codes for tests derived from a standard 10‑second electrocardiogram.  \n- **C120523 (Holter ECG Test Code)** – Codes for tests derived from Holter (continuous ambulatory) monitoring. This codelist is extensible.  \n\nBecause the source files do not contain the full list of C71153 values, individual submission values for that codelist cannot be listed here from the provided context; they should be confirmed against the CDISC Controlled Terminology publication. The Holter codelist (C120523) is fully available in the retrieved terminology and includes the following submission values (with their NCI codes, as they appear in the source):\n\n| NCI Code | CDISC Submission Value | CDISC Definition |\n|----------|------------------------|-------------------|\n| C111131 | AVCOND | An electrocardiographic assessment of cardiac atrioventricular conduction. |\n| C111132 | AXISVOLT | An electrocardiographic assessment of mean cardiac electrical vector and the ECG voltage. |\n| C111155 | CHYPTENL | An electrocardiographic assessment of chamber hypertrophy or enlargement. |\n| C117761 | EGCOMP | A comparative interpretation of an ECG relative to a previous (comparator) ECG. |\n| C41255 | INTP | Interpretation of the event. |\n| C111238 | IVTIACD | An electrocardiographic assessment of intraventricular and intra‑atrial conduction. |\n| C111280 | MI | Myocardial Infarction. |\n| C111285 | PACEMAKR | Pacemaker – assessment of presence of artificial electronic pacing. |\n| C111307 | RHYNOS | Rhythm Not Otherwise Specified. |\n| C111312 | SNRARRY | Sinus Node Rhythms and Arrhythmias. |\n| C111320 | SPRARRY | Supraventricular Arrhythmias. |\n| C111321 | SPRTARRY | Supraventricular Tachyarrhythmias. |\n| C111363 | STSTWUW | ST Segment, T wave, and U wave. |\n| C117807 | TECHQUAL | Technical Quality – statement about recording issues, not an ECG diagnosis. |\n| C111330 | VTARRY | Ventricular Arrhythmias. |\n| C111331 | VTTARRY | Ventricular Tachyarrhythmias. |\n\n**[Source: terminology/core/eg_part3.md – Holter ECG Test Code (C120523)]**\n\nThese test codes are used in conjunction with the corresponding test names (EGTEST, controlled by C71152 and C120524) and result codelists appropriate for each test. Note that when Holter data are linked to a procedure, the domain also uses EGMETHOD to capture the method (e.g., “HOLTER CONTINUOUS ECG RECORDING”) and may relate to a PR record via `--LNKID` **[Source: domains/EG/examples.md – Example 2]**.",
      "elapsed_s": 40.14
    },
    {
      "id": "q27",
      "category": "single_domain",
      "question": "What is the IE (Inclusion/Exclusion) domain and what is the role and maximum length of the IETEST variable?",
      "source_recall": 1.0,
      "source_hits": [
        "domains/IE/spec.md"
      ],
      "source_misses": [],
      "top5_sources": [
        "domains/IE/spec.md",
        "domains/IE/spec.md",
        "domains/IE/spec.md",
        "domains/IE/spec.md",
        "domains/TI/spec.md"
      ],
      "top5_similarities": [
        0.6769,
        0.607,
        0.5335,
        0.5254,
        0.7161
      ],
      "fact_recall": 1.0,
      "fact_hits": [
        "IETEST",
        "200",
        "Synonym Qualifier"
      ],
      "fact_misses": [],
      "answer_preview": "The IE (Inclusion/Exclusion Criteria Not Met) domain is a **Findings** domain that captures the specific inclusion or exclusion criteria that a subject **did not meet**. Rather than collecting all criteria responses, the domain records only the exceptions — i.e., the criteria the subject failed to satisfy. **[Source: domains/IE/assumptions.md item 1]**\n\n### IETEST Variable\n- **Role:** **Synonym Qualifier** (the verbatim, human-readable version of the criterion short name, which is stored in IETESTCD, the Topic variable) **[Source: domains/IE/spec.md – IETEST]**\n- **Maximum length:** **200 char",
      "usage": {
        "prompt_tokens": 9852,
        "completion_tokens": 703,
        "total_tokens": 10555
      },
      "model": "deepseek-v4-pro",
      "answer": "The IE (Inclusion/Exclusion Criteria Not Met) domain is a **Findings** domain that captures the specific inclusion or exclusion criteria that a subject **did not meet**. Rather than collecting all criteria responses, the domain records only the exceptions — i.e., the criteria the subject failed to satisfy. **[Source: domains/IE/assumptions.md item 1]**\n\n### IETEST Variable\n- **Role:** **Synonym Qualifier** (the verbatim, human-readable version of the criterion short name, which is stored in IETESTCD, the Topic variable) **[Source: domains/IE/spec.md – IETEST]**\n- **Maximum length:** **200 characters** — the specification explicitly states “IETEST cannot be longer than 200 characters.” If the original criterion text exceeds 200 characters, a meaningful abbreviation is placed in IETEST and the full text is described in the study metadata. **[Source: domains/IE/spec.md – IETEST; domains/IE/assumptions.md item 3]**",
      "elapsed_s": 12.39
    },
    {
      "id": "q06",
      "category": "cross_domain",
      "question": "What is SUPPQUAL and when should supplemental qualifiers be used instead of adding variables to a domain?",
      "source_recall": 1.0,
      "source_hits": [
        "domains/SUPPQUAL/spec.md"
      ],
      "source_misses": [],
      "top5_sources": [
        "domains/SUPPQUAL/spec.md",
        "domains/SUPPQUAL/spec.md",
        "domains/SUPPQUAL/spec.md",
        "domains/SUPPQUAL/spec.md",
        "domains/SUPPQUAL/assumptions.md"
      ],
      "top5_similarities": [
        0.5533,
        0.4872,
        0.4705,
        0.4564,
        0.7409
      ],
      "fact_recall": 0.6667,
      "fact_hits": [
        "QNAM",
        "QVAL"
      ],
      "fact_misses": [
        "non-standard"
      ],
      "answer_preview": "**SUPPQUAL** (Supplemental Qualifiers) is a special‑purpose dataset model used to capture **non‑standard variables (NSVs)** that cannot be added to the fixed SDTM domain structures. It stores each NSV/value combination as a separate record and links back to the parent record(s) via keys. **[Source: domains/SUPPQUAL/assumptions.md, chapters/ch08_relationships.md, model/06_relationship_datasets.md]**\n\n### Why Supplemental Qualifiers Instead of Adding Variables?\nThe SDTM **does not allow the addition of new variables** to standard domains. Therefore, any sponsor‑defined variable that is not part ",
      "usage": {
        "prompt_tokens": 15737,
        "completion_tokens": 1555,
        "total_tokens": 17292
      },
      "model": "deepseek-v4-pro",
      "answer": "**SUPPQUAL** (Supplemental Qualifiers) is a special‑purpose dataset model used to capture **non‑standard variables (NSVs)** that cannot be added to the fixed SDTM domain structures. It stores each NSV/value combination as a separate record and links back to the parent record(s) via keys. **[Source: domains/SUPPQUAL/assumptions.md, chapters/ch08_relationships.md, model/06_relationship_datasets.md]**\n\n### Why Supplemental Qualifiers Instead of Adding Variables?\nThe SDTM **does not allow the addition of new variables** to standard domains. Therefore, any sponsor‑defined variable that is not part of the SDTM domain specification must be represented in the Supplemental Qualifier dataset (`SUPP--`). This ensures data are submitted without altering the standard model. **[Source: chapters/ch08_relationships.md §8.4]**\n\n### Structure and Identification\nEach `SUPP--` record contains:\n- **Identifying keys:** `STUDYID`, `RDOMAIN` (parent domain), `USUBJID`, `IDVAR` (e.g., `--SEQ`, `--GRPID`), `IDVARVAL`.\n- **Qualifier metadata:** `QNAM` (8‑character variable name), `QLABEL` (label, ≤40 characters), and `QVAL` (the actual value; required – no nulls allowed).\n- **Origin and evaluator:** `QORIG` (source of data, e.g., “CRF”, “Derived”) and `QEVAL` (evaluator role if the value is subjective; otherwise null).\n\nSeparate physical datasets (`supp--.xpt`) are created for each parent domain (e.g., `suppae.xpt`). **[Source: domains/SUPPQUAL/spec.md, model/06_relationship_datasets.md, VARIABLE_INDEX.md]**\n\n### When to Use Supplemental Qualifiers\nSupplemental qualifiers are appropriate in the following situations:\n\n1. **Any sponsor‑defined variable** that adds information to a standard domain record but is not part of the SDTM variable list.  \n   *Example:* A custom flag like “clinically significant” that does not fit as a standard qualifier. **[Source: chapters/ch08_relationships.md §8.4]**\n2. **Attributions from a secondary evaluator** (e.g., an adjudication committee). The primary evaluation stays in the main domain; secondary evaluations are placed in `SUPP--` with `QNAM` formed by appending “1” (or replacing the last character with “1” if the variable name is already 8 characters). `QEVAL` identifies the evaluator. **[Source: chapters/ch04_general_assumptions.md §4.5.4, chapters/ch08_relationships.md §8.4]**\n3. **Long text strings exceeding 200 characters**. The first 200 characters go in the parent domain variable; each additional 200‑character block is split into a `SUPP--` record with a sequential numeric suffix (e.g., `MHTERM` → `MHTER1`, `MHTER2`, …). The `QLABEL` remains the original variable label. **[Source: chapters/ch04_general_assumptions.md §4.5.3.2]**\n4. **Variables that form part of the natural key** but cannot be accommodated in the main domain. They can be referenced in the metadata as `QNAM.<varname>`. **[Source: chapters/ch04_general_assumptions.md §4.1.9]**\n\n### When **Not** to Use Supplemental Qualifiers\nData that belong elsewhere should **not** be placed in `SUPP--`:\n- Subject‑level objective data that fit in **Subject Characteristics (SC)** (e.g., national origin).\n- Findings interpretations that should be represented as **additional test codes** in the same Findings domain (e.g., `EGTESTCD = “INTP”` for ECG interpretation).\n- **Comments** – these go in the **CO** special‑purpose domain.\n- Data that represent **separate observations** (not attributes of a parent record) – they should be in their own domain.  \n**[Source: chapters/ch08_relationships.md §8.4.4]**\n\nIn summary, `SUPPQUAL` is the SDTM mechanism for extending domains without violating the standard model, used exclusively for non‑standard variables that are direct qualifiers of existing observations, and not for standalone data or comments.",
      "elapsed_s": 32.05
    },
    {
      "id": "q07",
      "category": "cross_domain",
      "question": "Which SDTM domains use the EPOCH variable and what is its purpose?",
      "source_recall": 1.0,
      "source_hits": [
        "VARIABLE_INDEX.md"
      ],
      "source_misses": [],
      "top5_sources": [
        "VARIABLE_INDEX.md",
        "chapters/ch04_general_assumptions.md",
        "model/01_concepts_and_terms.md",
        "domains/SR/spec.md",
        "chapters/ch02_fundamentals.md"
      ],
      "top5_similarities": [
        0.5124,
        0.7004,
        11.8134,
        0.6837,
        11.0386
      ],
      "fact_recall": 1.0,
      "fact_hits": [
        "EPOCH",
        "Timing"
      ],
      "fact_misses": [],
      "answer_preview": "EPOCH is an optional, cross-domain Timing variable used to indicate the study epoch during which an observation was collected or an event/intervention started. It is common to all three general observation classes (Interventions, Events, and Findings) and to some special-purpose domains.\n\n### Purpose\nEPOCH’s role is to associate an observation with a distinct period, or epoch, of a clinical trial. **[Source: chapters/ch04_general_assumptions.md §4.1.3.1]**\n- For **Interventions** and **Events** class domains, EPOCH assignment should be based on the start date/time of the observation (`--STDTC`",
      "usage": {
        "prompt_tokens": 14574,
        "completion_tokens": 1067,
        "total_tokens": 15641
      },
      "model": "deepseek-v4-pro",
      "answer": "EPOCH is an optional, cross-domain Timing variable used to indicate the study epoch during which an observation was collected or an event/intervention started. It is common to all three general observation classes (Interventions, Events, and Findings) and to some special-purpose domains.\n\n### Purpose\nEPOCH’s role is to associate an observation with a distinct period, or epoch, of a clinical trial. **[Source: chapters/ch04_general_assumptions.md §4.1.3.1]**\n- For **Interventions** and **Events** class domains, EPOCH assignment should be based on the start date/time of the observation (`--STDTC`). **[Source: chapters/ch04_general_assumptions.md §4.1.3.1]**\n- For **Findings** class domains, EPOCH should be based on the date/time of the finding (`--DTC`), or the date/time of specimen collection for tests performed on specimens. **[Source: chapters/ch04_general_assumptions.md §4.1.3.1]**\n- EPOCH is a study-design construct and is generally not applicable, and should be left null, for observations that occurred before the subject's participation in the study (including screening). **[Source: chapters/ch04_general_assumptions.md §4.1.3.1]**\n- EPOCH values must be distinct for different epochs. For example, in a crossover trial with three treatment epochs, they cannot all be called \"TREATMENT\". **[Source: domains/TA/assumptions.md]**\n\n### Domain Usage\nAs a permissible Timing variable in the general observation classes, EPOCH can be added to virtually any domain based on those classes. The following is a representative list of domains that explicitly include it in their specification, drawn from the provided context:\n\n**Findings Class Domains:**\n- **CP** (Cell Phenotype Findings) **[Source: domains/CP/spec.md]**\n- **FA** (Findings About Events or Interventions) **[Source: domains/FA/spec.md]**\n- **PC** (Pharmacokinetics Concentrations) **[Source: domains/PC/spec.md]**\n- **PP** (Pharmacokinetics Parameters) **[Source: domains/PP/spec.md]**\n- **SR** (Skin Response) **[Source: domains/SR/spec.md]**\n\n**Interventions & Events Class Domains:**\n- The variable is noted as being applicable to domains like Exposure (EX) and Disposition (DS), and by extension it can be used in any of the Interventions or Events general observation class domains. **[Source: domains/TA/assumptions.md; model/02_observation_classes.md]**\n\n**Special-purpose Domains:**\n- Timing variables, including EPOCH, can be added to special-purpose domains only where specified in their individual domain model assumptions. **[Source: chapters/ch04_general_assumptions.md §4.1.3]**\n\nThe controlled terminology for EPOCH is codelist **C99079**. **[Source: domains/SR/spec.md; domains/CP/spec.md; domains/PC/spec.md]**",
      "elapsed_s": 21.2
    },
    {
      "id": "q08",
      "category": "cross_domain",
      "question": "How does USUBJID serve as a linking key across SDTM domains?",
      "source_recall": 1.0,
      "source_hits": [
        "domains/DM/spec.md"
      ],
      "source_misses": [],
      "top5_sources": [
        "VARIABLE_INDEX.md",
        "domains/SUPPQUAL/spec.md",
        "chapters/ch04_general_assumptions.md",
        "domains/DM/spec.md",
        "chapters/ch03_submitting_data.md"
      ],
      "top5_similarities": [
        0.4878,
        0.7075,
        10.4468,
        0.6923,
        9.9812
      ],
      "fact_recall": 1.0,
      "fact_hits": [
        "USUBJID",
        "Identifier",
        "unique"
      ],
      "fact_misses": [],
      "answer_preview": "**USUBJID** is the single, universal identifier for a study subject—it uniquely labels an individual across **all** datasets, studies, and submissions involving the product. Because it is a **Required (Req) Identifier** in virtually every subject‑level domain (DM, all Events, Interventions, Findings, Special‑Purpose, and many Relationship datasets), it provides the primary join key for assembling all observations belonging to the same subject.\n\n## Key ways USUBJID links domains\n\n| Mechanism | Role of USUBJID | Example |\n|-----------|----------------|---------|\n| **Subject‑level datasets** (DM,",
      "usage": {
        "prompt_tokens": 14069,
        "completion_tokens": 1656,
        "total_tokens": 15725
      },
      "model": "deepseek-v4-pro",
      "answer": "**USUBJID** is the single, universal identifier for a study subject—it uniquely labels an individual across **all** datasets, studies, and submissions involving the product. Because it is a **Required (Req) Identifier** in virtually every subject‑level domain (DM, all Events, Interventions, Findings, Special‑Purpose, and many Relationship datasets), it provides the primary join key for assembling all observations belonging to the same subject.\n\n## Key ways USUBJID links domains\n\n| Mechanism | Role of USUBJID | Example |\n|-----------|----------------|---------|\n| **Subject‑level datasets** (DM, AE, CM, LB, SV, …) | Part of the natural key (often `STUDYID, USUBJID, --SEQ`). A simple merge on `STUDYID` + `USUBJID` can combine all data for a subject. | DM: `STUDYID, USUBJID`; AE: `STUDYID, USUBJID, AESEQ` **[Source: domains/DM/spec.md, domains/AE/spec.md]** |\n| **Relationship datasets** (RELREC, SUPPQUAL) | Identifies the subject whose records are being related; used together with `IDVAR` and `IDVARVAL` to point to a specific row. | SUPPQUAL: `STUDYID, RDOMAIN, USUBJID, IDVARVAL` link a supplemental qualifier to its parent record. **[Source: domains/SUPPQUAL/spec.md, chapters/ch08_relationships.md]** |\n| **RELSUB** (Related Subjects) | `USUBJID` (or `POOLID`) identifies the subject that is related to another subject/pool. | `USUBJID` = the child subject, `RSUBJID` = the parent subject/pool. **[Source: domains/RELSUB/spec.md]** |\n| **Dataset‑to‑dataset relationships** | When the relationship is at the dataset level, `USUBJID` may be null; however, within‑subject record‑level links require `USUBJID` to be populated. | RELREC with `RELTYPE` = ONE/MANY; if within‑subject, `USUBJID` is filled. **[Source: chapters/ch08_relationships.md §8.3.1]** |\n\nThe SDTM foundation model states that **Identifier variables**, including `USUBJID`, are used to “identify the study, subject, domain, and sequence number of the record” **[Source: chapters/ch02_fundamentals.md]**. Therefore, any query that needs to gather all data for a subject across domains simply joins on `USUBJID` (and `STUDYID`). Its consistent definition—”Identifier used to uniquely identify a subject across all studies for all applications or submissions involving the product”—ensures that the same subject can be tracked from Demographics (DM) to adverse events (AE), lab results (LB), exposure (EX), and even in relationship structures like RELREC and SUPPQUAL.\n\n> **Note:** For *Associated Persons* data, a different identifier **APID** is used; subject‑level domains always use `USUBJID`. **[Source: model/04_associated_persons.md]**",
      "elapsed_s": 32.36
    },
    {
      "id": "q09",
      "category": "cross_domain",
      "question": "How are adverse events linked to concomitant medications using RELREC?",
      "source_recall": 1.0,
      "source_hits": [
        "domains/RELREC/spec.md"
      ],
      "source_misses": [],
      "top5_sources": [
        "domains/RELREC/spec.md",
        "domains/AE/spec.md",
        "chapters/ch08_relationships.md",
        "domains/RELREC/examples.md",
        "domains/RELREC/assumptions.md"
      ],
      "top5_similarities": [
        0.4612,
        0.5185,
        0.6173,
        0.583,
        0.5376
      ],
      "fact_recall": 1.0,
      "fact_hits": [
        "RELREC",
        "IDVAR",
        "IDVARVAL"
      ],
      "fact_misses": [],
      "answer_preview": "Adverse events (AE) are linked to concomitant medications (CM) using the **Related Records (RELREC)** domain. The mechanism is as follows:\n\n1. **Indication in AE**  \n   In the AE domain, the variable **AECONTRT** (Y/N) records whether a non-study treatment was administered because of the adverse event. If “Y”, the actual treatment details are stored in the CM domain, and the two domains are linked via RELREC.  \n   **[Source: domains/AE/assumptions.md item 6a]**\n\n2. **Creating the relationship in RELREC**  \n   For each subject (USUBJID), you add a row to RELREC for **each record that participat",
      "usage": {
        "prompt_tokens": 16420,
        "completion_tokens": 1297,
        "total_tokens": 17717
      },
      "model": "deepseek-v4-pro",
      "answer": "Adverse events (AE) are linked to concomitant medications (CM) using the **Related Records (RELREC)** domain. The mechanism is as follows:\n\n1. **Indication in AE**  \n   In the AE domain, the variable **AECONTRT** (Y/N) records whether a non-study treatment was administered because of the adverse event. If “Y”, the actual treatment details are stored in the CM domain, and the two domains are linked via RELREC.  \n   **[Source: domains/AE/assumptions.md item 6a]**\n\n2. **Creating the relationship in RELREC**  \n   For each subject (USUBJID), you add a row to RELREC for **each record that participates in the relationship**.  \n   - **Key variables**: STUDYID, RDOMAIN, USUBJID, IDVAR, IDVARVAL.  \n   - **Relational identifier**: RELID – a sponsor-chosen value that is identical for all records in the same relationship (within a subject).  \n   - For the AE record: RDOMAIN=“AE”, IDVAR=“AESEQ”, IDVARVAL=<the AE sequence number>.  \n   - For the CM record(s): RDOMAIN=“CM”, IDVAR=“CMSEQ” (or “CMGRPID” if grouping multiple medications), IDVARVAL=<the CM sequence number or the GRPID value>.  \n   **[Source: domains/RELREC/assumptions.md, chapters/ch08_relationships.md 8.2]**\n\n3. **Examples of the RELREC dataset**  \n\n   **Example 1 – linking a single AE to two individual CM records**  \n   ```\n   Row | STUDYID | RDOMAIN | USUBJID | IDVAR   | IDVARVAL | RELTYPE | RELID\n   1   | EFC1234 | AE      | 123456  | AESEQ   | 5        |         | 1\n   2   | EFC1234 | CM      | 123456  | CMSEQ   | 11       |         | 1\n   3   | EFC1234 | CM      | 123456  | CMSEQ   | 12       |         | 1\n   ```\n   **[Source: domains/RELREC/examples.md Example 1]**\n\n   **Example 2 – grouping CM records using CMGRPID**  \n   When the CM records are already grouped via CMGRPID (e.g., “COMBO1”), the relationship can be expressed more concisely:\n   ```\n   Row | STUDYID | RDOMAIN | USUBJID | IDVAR    | IDVARVAL | RELTYPE | RELID\n   1   | EFC1234 | AE      | 123456  | AESEQ    | 5        |         | 1\n   2   | EFC1234 | CM      | 123456  | CMGRPID  | COMBO1   |         | 1\n   3   | EFC1234 | LB      | 123456  | LBSEQ    | 47       |         | 1\n   4   | EFC1234 | LB      | 123456  | LBSEQ    | 48       |         | 1\n   ```\n   (In this example, COMBO1 groups the two CM medications that belong to the relationship.)  \n   **[Source: domains/RELREC/examples.md Example 3]**\n\n4. **Important notes**  \n   - RELID is unique within USUBJID; sponsor chooses the naming convention.  \n   - IDVAR can be any variable that uniquely identifies a record (e.g., --SEQ) or a group of records (e.g., --GRPID).  \n   - The relationship is “collected” – it reflects the explicit link between the AE and its treatment, not a derived association.  \n   **[Source: domains/RELREC/assumptions.md, chapters/ch08_relationships.md 8.2]**\n\nThus, the typical linkage method is to insert one RELREC row for the AE and one row for each concomitant medication (or one row for a medication group defined by CMGRPID), all sharing the same RELID value.",
      "elapsed_s": 23.24
    },
    {
      "id": "q10",
      "category": "cross_domain",
      "question": "In oncology studies, how are the TR (Tumor/Lesion Results) domain and RS (Disease Response) domain linked together, and which specific identifier variables are used for each linkage direction?",
      "source_recall": 1.0,
      "source_hits": [
        "domains/TR/assumptions.md",
        "domains/TR/spec.md"
      ],
      "source_misses": [],
      "top5_sources": [
        "domains/TR/spec.md",
        "domains/RS/spec.md",
        "domains/RS/assumptions.md",
        "domains/TR/assumptions.md",
        "domains/TR/assumptions.md"
      ],
      "top5_similarities": [
        0.6207,
        0.6214,
        0.713,
        0.7055,
        0.6926
      ],
      "fact_recall": 0.5,
      "fact_hits": [
        "TRLNKGRP"
      ],
      "fact_misses": [
        "TRLNKID"
      ],
      "answer_preview": "Based on the provided context, the TR (Tumor/Lesion Results) and RS (Disease Response) domains are linked using a dataset-to-dataset relationship via the RELREC domain, with specific linking variables defined in each domain.\n\nThe linkage is designed to connect the quantitative measurements and qualitative assessments of individual tumors (stored in TR) to the overall response assessment(s) (stored in RS) that are derived from them.\n\n### Linkage Mechanism\n\nThe linkage between TR and RS is achieved through the `--LNKGRP` variable, which is specifically intended to facilitate dataset-to-dataset r",
      "usage": {
        "prompt_tokens": 15161,
        "completion_tokens": 788,
        "total_tokens": 15949
      },
      "model": "deepseek-v4-pro",
      "answer": "Based on the provided context, the TR (Tumor/Lesion Results) and RS (Disease Response) domains are linked using a dataset-to-dataset relationship via the RELREC domain, with specific linking variables defined in each domain.\n\nThe linkage is designed to connect the quantitative measurements and qualitative assessments of individual tumors (stored in TR) to the overall response assessment(s) (stored in RS) that are derived from them.\n\n### Linkage Mechanism\n\nThe linkage between TR and RS is achieved through the `--LNKGRP` variable, which is specifically intended to facilitate dataset-to-dataset relationships when other standard identifiers (`--GRPID`, `--REFID`, `--SPID`) may be used for other purposes. **[Source: domains/TR/assumptions.md]**\n\n### Specific Identifier Variables\n\n*   **In the TR domain**: The variable **`TRLNKGRP`** is used to identify the group of tumor measurements and assessments that collectively contribute to a specific response assessment record in the RS domain. **[Source: domains/TR/assumptions.md]**\n*   **In the RS domain**: The variable **`RSLNKGRP`** is used to link a response assessment record back to the contributing records in a findings domain, such as TR or LB. **[Source: domains/RS/assumptions.md]**\n\nFor example, a set of tumor measurements in TR for a given timepoint might all be assigned the same `TRLNKGRP` value (e.g., \"A2\"). The corresponding overall response assessment record in RS for that same timepoint would then contain the identical value in `RSLNKGRP`. **[Source: domains/RS/examples.md]** A formal `RELREC` relationship record is created to describe this link, most appropriately as a dataset-to-dataset link. **[Source: domains/TR/assumptions.md]** For a link to other source datasets like LB for lab-based assessments, `RSLNKID` would be used similarly. **[Source: domains/RS/assumptions.md]**",
      "elapsed_s": 18.33
    },
    {
      "id": "q28",
      "category": "cross_domain",
      "question": "What is the FA (Findings About Events or Interventions) domain and how does it link to parent domains like AE or CM using FAOBJ?",
      "source_recall": 1.0,
      "source_hits": [
        "domains/FA/spec.md"
      ],
      "source_misses": [],
      "top5_sources": [
        "VARIABLE_INDEX.md",
        "domains/FA/spec.md",
        "domains/AE/spec.md",
        "domains/CM/spec.md",
        "domains/FA/assumptions.md"
      ],
      "top5_similarities": [
        0.5985,
        0.5917,
        0.6388,
        0.4692,
        0.6937
      ],
      "fact_recall": 1.0,
      "fact_hits": [
        "Findings About",
        "FAOBJ",
        "FATESTCD"
      ],
      "fact_misses": [],
      "answer_preview": "The **FA (Findings About Events or Interventions)** domain is a Findings subtype used to record observations that describe a property, assessment, or measurement of an event or intervention, rather than the event or intervention itself. It is applied when findings:\n\n- Have timing that differs from the event/intervention as a whole (snapshots, repeated assessments of symptoms, summaries over time);\n- Require multiple variables for representation (e.g., measurement and units); or\n- Capture the occurrence of prespecified adverse events (see Section 6.4.1 of the SDTMIG) **[Source: domains/FA/assum",
      "usage": {
        "prompt_tokens": 16790,
        "completion_tokens": 2011,
        "total_tokens": 18801
      },
      "model": "deepseek-v4-pro",
      "answer": "The **FA (Findings About Events or Interventions)** domain is a Findings subtype used to record observations that describe a property, assessment, or measurement of an event or intervention, rather than the event or intervention itself. It is applied when findings:\n\n- Have timing that differs from the event/intervention as a whole (snapshots, repeated assessments of symptoms, summaries over time);\n- Require multiple variables for representation (e.g., measurement and units); or\n- Capture the occurrence of prespecified adverse events (see Section 6.4.1 of the SDTMIG) **[Source: domains/FA/assumptions.md item_6]**.\n\nFA belongs to the **Findings About** class, a subtype of Findings, and is structurally analogous to other Findings domains but adds the `FAOBJ` variable **[Source: model/02_observation_classes.md §3.1.3 The Findings Observation Class]**.\n\n---\n\n### FAOBJ: Link to Parent Domains\n\n`FAOBJ` (Object of the Observation) is a **Required Record Qualifier** in FA. It provides the name of the event or intervention that the finding is about, enabling the FA record to be associated with a record in a parent domain like AE, CM, PR, EX, etc.\n\n- **Label:** Object of the Observation  \n- **Type:** Char  \n- **Role:** Record Qualifier  \n- **Core:** Req  \n- **CDISC Notes:** \"Used to describe the object or focal point of the findings observation… Examples: the term (e.g., 'Acne') describing a clinical sign or symptom…; an event (e.g., 'VOMIT') where the volume of vomit is being measured by a VOLUME test.\" **[Source: domains/FA/spec.md – FAOBJ]**\n\nIn practice, `FAOBJ` is populated with the same **term** that appears as the topic variable (e.g., `AEDECOD`, `CMDECOD`) or a prespecified event/intervention name in the parent record. When a direct parent record exists, `FASPID` (Sponsor-Defined Identifier) may be populated with the parent’s `--SPID` (e.g., `AESPID`) to create an explicit link. Even without `FASPID`, the combination of `FAOBJ` and study context establishes the relationship.\n\n---\n\n### How FA Links to AE or CM Using FAOBJ\n\nFor **adverse events** (AE):\n\n- `FAOBJ` takes the coded AE term (e.g., `AEDECOD` = “Nausea”).  \n- `FASPID` often equals the AE’s `AESPID`, providing a direct record-level link.  \n- The `FATESTCD` value often mirrors the variable name of an event‑qualifier (e.g., `SEV` for severity, `OCCUR` for occurrence indicator) when the finding is about a part of the event rather than the whole event **[Source: domains/FA/assumptions.md item_4]**.\n\n**Example (from FA Example 6):** Severity of nausea assessed at each visit.\n\n```\nAE record:       AESPID=1, AEDECOD=\"Nausea\", AESEV=MODERATE\nFA records:      FASPID=1, FATESTCD=\"SEV\", FAOBJ=\"Nausea\"\n```\n\n**[Source: domains/FA/examples.md Example 6]** – FASPID links to AESPID, FAOBJ links via term.\n\n**Example (prespecified AEs, FA Example 4):** Occurrence of prespecified terms.\n\n```\nAE record:       AESPID not shown, AEDECOD=\"Headache\", AEPRESP=Y\nFA records:      FATESTCD=\"OCCUR\", FAOBJ=\"Headache\", FAORRES=\"Y\"\n```\n\nHere FAOBJ matches the AE term, but no explicit `FASPID` is used; the link is implicit via the term and subject/timing. **[Source: domains/FA/examples.md Example 4]**\n\nFor **concomitant medications** (CM), the same pattern applies using `CMDECOD` and `CMSPID`:\n\n- `FAOBJ` = coded medication term (e.g., `CMDECOD` = “ASPIRIN”).  \n- `FASPID` = `CMSPID` when a parent record exists.\n\nThe relationship dataset **RELREC** may also be used to formalize links between FA and its parent domains (e.g., with `RELTYPE` = “ASSOC”) when additional traceability is required **[Source: chapters/ch08_relationships.md §8.6.3]**.\n\n---\n\n### Summary\n\nThe FA domain records findings *about* events or interventions, while the parent domains (AE, CM, etc.) hold the event/intervention records themselves. The variable **FAOBJ** names the event or intervention object, and **FASPID** optionally provides a sponsor‑defined link to a specific parent record. This design allows snapshots, repeated measures, or occurrence assessments that would not fit as qualifiers in the parent domain to be cleanly separated and still linked back to the parent observation.",
      "elapsed_s": 40.55
    },
    {
      "id": "q29",
      "category": "cross_domain",
      "question": "How do the four Trial Design domains TA (Trial Arms), TE (Trial Elements), TV (Trial Visits), and TI (Trial Inclusion/Exclusion) work together to define a study design?",
      "source_recall": 1.0,
      "source_hits": [
        "domains/TA/assumptions.md",
        "domains/TE/assumptions.md"
      ],
      "source_misses": [],
      "top5_sources": [
        "domains/TA/spec.md",
        "domains/TE/spec.md",
        "domains/TV/spec.md",
        "domains/TE/assumptions.md",
        "domains/TA/assumptions.md"
      ],
      "top5_similarities": [
        0.7568,
        0.7352,
        0.7534,
        0.7359,
        0.7245
      ],
      "fact_recall": 1.0,
      "fact_hits": [
        "TA",
        "TE",
        "TV",
        "TI"
      ],
      "fact_misses": [],
      "answer_preview": "The four Trial Design domains—TA, TE, TV, and TI—are part of the Trial Design Model that standardizes the description of a clinical trial’s planned structure. They work together as follows:\n\n- **TE (Trial Elements)** defines the fundamental building blocks: each record is a unique element representing a period of time that serves a purpose in the trial (e.g., \"Screening,\" \"Drug A dosing\"). It provides the element code (`ETCD`), description, start/end rules, and planned duration.  \n  **[Source: domains/TE/assumptions.md; model/05_study_level_data.md]**\n\n- **TA (Trial Arms)** assembles those ele",
      "usage": {
        "prompt_tokens": 14611,
        "completion_tokens": 2106,
        "total_tokens": 16717
      },
      "model": "deepseek-v4-pro",
      "answer": "The four Trial Design domains—TA, TE, TV, and TI—are part of the Trial Design Model that standardizes the description of a clinical trial’s planned structure. They work together as follows:\n\n- **TE (Trial Elements)** defines the fundamental building blocks: each record is a unique element representing a period of time that serves a purpose in the trial (e.g., \"Screening,\" \"Drug A dosing\"). It provides the element code (`ETCD`), description, start/end rules, and planned duration.  \n  **[Source: domains/TE/assumptions.md; model/05_study_level_data.md]**\n\n- **TA (Trial Arms)** assembles those elements into complete arms. Each record in TA is one occurrence of an element within an arm, identified by the `ETCD` from TE. TA places elements in order (`TAETORD`), assigns each occurrence to an Epoch, and records branching/transition rules. Thus the sequence of elements an arm comprises and the epoch each occurrence belongs to are defined in TA.  \n  **[Source: domains/TA/assumptions.md; domains/TA/spec.md; model/05_study_level_data.md]**\n\n- **TV (Trial Visits)** defines the planned visit schedule, anchored to the structure provided by TE and TA. Each visit record has a number and start/end rules that typically reference the start or end of epochs (e.g., “1 week after start of Treatment Epoch”) or of specific elements (using element names, possibly along with `TAETORD`). This ties the visit timing to the trial design’s timeline.  \n  **[Source: domains/TV/spec.md; domains/TV/examples.md]**\n\n- **TI (Trial Inclusion/Exclusion Criteria)** captures all of the study’s eligibility criteria in a standardized format. While not directly linked to the timeline or arms, TI defines the rules that determine whether a subject can enter the trial — information that is critical to the design and that is used in the subject‑level IE domain. It complements the structural design by documenting the enrollment requirements.  \n  **[Source: domains/TI/assumptions.md; model/05_study_level_data.md]**\n\nIn summary, **TE supplies the element definitions; TA arranges them into arms, sequencing and placing each element occurrence into an epoch; TV schedules visits against those epochs/elements; and TI provides the eligibility rules that govern subject entry.** Together they give a complete, machine‑readable picture of the planned study design.",
      "elapsed_s": 47.2
    },
    {
      "id": "q30",
      "category": "cross_domain",
      "question": "What is the CO (Comments) domain and how does it reference records in other SDTM domains? Describe the RDOMAIN and IDVAR mechanism.",
      "source_recall": 1.0,
      "source_hits": [
        "domains/CO/spec.md",
        "domains/CO/assumptions.md"
      ],
      "source_misses": [],
      "top5_sources": [
        "VARIABLE_INDEX.md",
        "domains/CO/spec.md",
        "chapters/ch08_relationships.md",
        "domains/CO/assumptions.md",
        "domains/CO/assumptions.md"
      ],
      "top5_similarities": [
        0.569,
        0.6492,
        0.6728,
        0.6876,
        0.7154
      ],
      "fact_recall": 1.0,
      "fact_hits": [
        "COVAL",
        "RDOMAIN",
        "IDVAR"
      ],
      "fact_misses": [],
      "answer_preview": "The **Comments (CO)** domain is a special-purpose SDTM domain for capturing unstructured free-text comments that are not part of the primary domain data. Comments are typically unsolicited observations or voluntary free‑text, and they may be collected on a dedicated comments CRF page or alongside other domain records. **[Source: domains/CO/assumptions.md, item 1; chapters/ch08_relationships.md §8.5; model/03_special_purpose_domains.md]**\n\n### Core Structure\nThe CO dataset contains one record per comment per subject (or per study). Key identifiers include `STUDYID`, `DOMAIN` (always `\"CO\"`), `U",
      "usage": {
        "prompt_tokens": 15172,
        "completion_tokens": 2363,
        "total_tokens": 17535
      },
      "model": "deepseek-v4-pro",
      "answer": "The **Comments (CO)** domain is a special-purpose SDTM domain for capturing unstructured free-text comments that are not part of the primary domain data. Comments are typically unsolicited observations or voluntary free‑text, and they may be collected on a dedicated comments CRF page or alongside other domain records. **[Source: domains/CO/assumptions.md, item 1; chapters/ch08_relationships.md §8.5; model/03_special_purpose_domains.md]**\n\n### Core Structure\nThe CO dataset contains one record per comment per subject (or per study). Key identifiers include `STUDYID`, `DOMAIN` (always `\"CO\"`), `USUBJID`, and the sequence number `COSEQ`. The comment text itself is stored in `COVAL`. **[Source: model/03_special_purpose_domains.md; domains/CO/assumptions.md – overview]**  \nIf the text exceeds 200 characters, it is split into `COVAL` (first 200), `COVAL1` (next 200), `COVAL2`, etc. **[Source: domains/CO/assumptions.md, item 4]**\n\n### How CO References Records in Other Domains\nCO uses a set of relationship variables to link a comment to parent records in any SDTM domain. The three key variables are:\n\n- **`RDOMAIN`** – *Related Domain Abbreviation* (Char, Record Qualifier, Perm). Holds the two‑character domain code of the parent domain (e.g., `\"AE\"`, `\"VS\"`). Controlled by codelist C66734 (SDTM Domain Abbreviation). **[Source: VARIABLE_INDEX.md – CO; domains/CO/spec.md – Controlled Terminology]**\n- **`IDVAR`** – *Identifying Variable* (Char, Record Qualifier, Perm). The name of the variable in the parent domain that uniquely identifies the related record(s), e.g., `AESEQ`, `VSGRPID`, or any key variable such as `--SEQ` or `--GRPID`. **[Source: chapters/ch08_relationships.md §8.5; model/03_special_purpose_domains.md]**\n- **`IDVARVAL`** – *Identifying Variable Value* (Char, Record Qualifier, Perm). The value of the variable named in `IDVAR` for the specific parent record(s). **[Source: model/03_special_purpose_domains.md; chapters/ch08_relationships.md §8.5]**\n\nThese relationship variables are structured exactly like those in the `SUPPQUAL` domain, allowing a comment to point to a single record, a group of records, or a whole domain.\n\n### Three Levels of Referencing\nThe CO assumptions define three scenarios, which determine the population of `RDOMAIN`, `IDVAR`, and `IDVARVAL`:\n\n1. **Comments unrelated to any domain or specific record**  \n   `RDOMAIN`, `IDVAR`, `IDVARVAL` are null. The comment is linked only to the subject via `USUBJID`. This typically originates from a generic comments page.  \n   `CODTC` should be populated if captured. **[Source: domains/CO/assumptions.md, item 3a]**\n\n2. **Comments related to a domain but not to specific records**  \n   `RDOMAIN` = the domain code (e.g., `\"PE\"`), `IDVAR` and `IDVARVAL` are null.  \n   The comment applies to the domain as a whole (e.g., a note written at the bottom of a physical exam page). `CODTC` should be populated if captured. **[Source: domains/CO/assumptions.md, item 3b; domains/CO/examples.md – Example 1, row 2]**\n\n3. **Comments related to specific parent record(s) within a domain**  \n   `RDOMAIN` = parent domain code, `IDVAR` = the name of the variable that identifies the record(s) in that domain (e.g., `AESEQ`, `EXGRPID`), `IDVARVAL` = the value of that variable (e.g., `7`, `COMBO1`).  \n   `CODTC` should be **null** because the timing is inherited from the parent record. **[Source: domains/CO/assumptions.md, item 3c; chapters/ch08_relationships.md §8.5]**\n\nWhen a comment is associated with **multiple records within the same domain**, a grouping variable such as `--GRPID` can be used as `IDVAR`. For example, a comment about a group of concomitant medications might use `CMGRPID` in `IDVAR`. **[Source: chapters/ch08_relationships.md §8.5; domains/CO/examples.md – Example 1, rows 4–5]**\n\nIf a single comment relates to records in **multiple domains**, `RDOMAIN` can only hold one value, so the comment must be repeated as separate CO records, each linking to one domain. **[Source: chapters/ch08_relationships.md §8.5]**\n\n### Additional Referencing Helpers\n- `COREF` (*Comment Reference*, Char, Record Qualifier, Perm) can hold supplementary information such as a CRF page number or a visit label (e.g., `\"Visit 7\"`).  \n- Permissible timing variables like `VISITNUM`, `VISIT`, or `VISITDY` may be added to CO to further describe the temporal context of the comment. **[Source: chapters/ch08_relationships.md §8.5; domains/CO/examples.md – Example 1, rows 7–8]**\n\n### Example Snippet\nFrom the CO examples, a comment linked to an AE record (AESEQ=7) would appear as:\n\n| Row | RDOMAIN | IDVAR | IDVARVAL | COVAL |\n|-----|---------|-------|----------|-------|\n| 3 | AE | AESEQ | 7 | (comment text) |\n\n**[Source: domains/CO/examples.md – Example 1]**\n\nIn summary, CO’s `RDOMAIN`/`IDVAR`/`IDVARVAL` mechanism mirrors the SUPPQUAL relationship approach, enabling precise traceability from free‑text comments back to the parent observations while maintaining a clean separation between structured data and unstructured annotations.",
      "elapsed_s": 42.61
    },
    {
      "id": "q31",
      "category": "cross_domain",
      "question": "How are the EC (Exposure as Collected) and EX (Exposure) domains different in purpose, and when should each be used?",
      "source_recall": 1.0,
      "source_hits": [
        "domains/EC/assumptions.md"
      ],
      "source_misses": [],
      "top5_sources": [
        "domains/EC/spec.md",
        "domains/EX/spec.md",
        "domains/EX/assumptions.md",
        "domains/EC/assumptions.md",
        "domains/EX/assumptions.md"
      ],
      "top5_similarities": [
        0.5814,
        0.5962,
        0.7328,
        0.7317,
        0.5907
      ],
      "fact_recall": 1.0,
      "fact_hits": [
        "collected",
        "EX",
        "EC"
      ],
      "fact_misses": [],
      "answer_preview": "The EC (Exposure as Collected) and EX (Exposure) domains serve distinct but complementary roles in representing study treatment administrations.\n\n---\n\n### Purpose and Fundamental Difference\n\n- **EC (Exposure as Collected)** captures protocol‑specified treatment administrations **exactly as they were recorded**, before any transformation or derivation. The data may be in units that differ from the protocol‑specified dose (e.g., number of tablets, total volume infused in mL, concentration in mg/mL) and may include both scheduled (intended) and actually performed administrations, as well as admin",
      "usage": {
        "prompt_tokens": 14279,
        "completion_tokens": 2093,
        "total_tokens": 16372
      },
      "model": "deepseek-v4-pro",
      "answer": "The EC (Exposure as Collected) and EX (Exposure) domains serve distinct but complementary roles in representing study treatment administrations.\n\n---\n\n### Purpose and Fundamental Difference\n\n- **EC (Exposure as Collected)** captures protocol‑specified treatment administrations **exactly as they were recorded**, before any transformation or derivation. The data may be in units that differ from the protocol‑specified dose (e.g., number of tablets, total volume infused in mL, concentration in mg/mL) and may include both scheduled (intended) and actually performed administrations, as well as administrations that were not given.  \n  *“The EC domain model reflects protocol‑specified study treatment administrations, as collected. … Collected exposure log data points descriptive of administrations typically reflect amounts at the product‑level (e.g., number of tablets, number of mL).”* **[4]**\n\n- **EX (Exposure)** is a **derived dataset** that standardises the exposure information to the **protocol‑specified unit** (e.g., mg, mg/kg). It is built from EC records and other inputs (randomization file, concentration, product accountability) and represents what was actually administered. EX is designed to support analysis and regulatory review.  \n  *“The EX domain is recognized in most cases as a derived dataset where EXDOSU reflects the protocol‑specified unit per study treatment. Collected data points … along with additional inputs … are used to derive records in the EX domain.”* **[5]**\n\nIn short: **EC = raw collected trace, EX = derived, analysis‑ready exposure data**.\n\n---\n\n### When to Use Each Domain\n\n#### EC – Use when:\n1. **Collected data deviates from the protocol‑specified form/unit.**  \n   For example, when subjects take tablets but the protocol dose is in mg, or when volume infused is recorded in mL while the protocol defines dose in mg/kg.  \n   *“EC should be used in all cases where collected exposure information cannot or should not be directly represented in the Exposure (EX) domain. For example, administrations collected in tablets when the protocol‑specified unit is mg, or administrations collected in mL when the protocol‑specified unit is mg/kg.”* **[4]**\n\n2. **Detailed collection events must be preserved** – scheduling (ECMOOD = \"SCHEDULED\"), actual performance (ECMOOD = \"PERFORMED\"), missed doses (ECOCCUR = \"N\"), reasons for non‑administration, and product‑level amounts.  \n   Example: In a dose‑adjustment scenario, EC can show both the intended dose (mg/kg) and the actual dose given (mL, with concentration) for each visit, while EX shows only the actual doses in the protocol unit. **[13]**\n\n3. **EC is optional** only if the entire EC dataset would be an exact duplicate of the entire EX dataset (i.e., when collected data are already in the protocol‑specified units and no scheduling information needs to be retained). *“… If the entire EC dataset is an exact duplicate of the entire EX dataset, then EC is optional and at the sponsor’s discretion.”* **[4]**\n\n#### EX – Use when:\n1. **Any study includes protocol‑specified study treatment** – EX is mandatory.  \n   *“The EX domain is required for all studies that include protocol‑specified study treatment.”* **[5]**\n\n2. **Analysis‑ready exposures in standard units** are needed. EX translates raw EC records (or other data) into a single record per constant‑dosing interval, expressed in the protocol unit (EXDOSE + EXDOSU).  \n   *“The EX domain should contain 1 record per constant‑dosing interval per subject.”* **[5]**\n\n3. **Combining data from multiple sources** – e.g., unmasking information, drug concentration, product accountability – to derive the actual administered dose. Example: Bottle‑level tablet counts from EC are combined with per‑bottle strength information to derive total mg per day in EX. **[14]**\n\n---\n\n### Relationship between EC and EX\n\n- The derivation of EX from EC (and other inputs) must be described in the **Define‑XML** document.  \n  *“When the relationship between EC and EX records can be described in RELREC, then it should be defined. EX derivations must be described in the Define‑XML document.”* **[3][8]**\n\n- EC preserves the **audit trail** of exactly what was collected; EX provides the **standardised exposure** for efficacy/safety analyses.\n\n### Summary Table\n\n| Aspect | EC | EX |\n|--------|----|----|\n| **Nature** | Raw, as‑collected | Derived, standardised |\n| **Unit** | Collected unit (tablet, mL, mg/mL) | Protocol‑specified unit (mg, mg/kg) |\n| **Contents** | Scheduled + performed + not‑done administrations | Only actual administrations received |\n| **Granularity** | May have multiple records per administration (e.g., per bottle) | One record per constant‑dosing interval |\n| **Core requirement** | Conditional (if EC ≡ EX, optional) | Required for all studies with protocol treatment |\n| **Variables used** | ECMOOD, ECPRESP, ECOCCUR, ECREASOC, ECDOSE, ECDOSU, ECVAMT, etc. | EXDOSE, EXDOSU, EXDOSFRM, EXDOSFRQ; –MOOD, –PRESP, –OCCUR, –REASND generally not used |\n\nThis clear separation ensures that the collected reality is always traceable while the derived dataset provides the standardised view needed for regulatory submission and analysis.",
      "elapsed_s": 42.94
    },
    {
      "id": "q32",
      "category": "cross_domain",
      "question": "How is VISIT and VISITNUM used consistently across observation-class domains, and what role does the SV (Subject Visits) domain play in tracking actual visit dates?",
      "source_recall": 1.0,
      "source_hits": [
        "domains/SV/spec.md",
        "domains/SV/assumptions.md"
      ],
      "source_misses": [],
      "top5_sources": [
        "VARIABLE_INDEX.md",
        "domains/SV/spec.md",
        "model/03_special_purpose_domains.md",
        "chapters/ch04_general_assumptions.md",
        "domains/SV/assumptions.md"
      ],
      "top5_similarities": [
        0.6554,
        0.6543,
        0.7044,
        0.6665,
        0.6646
      ],
      "fact_recall": 1.0,
      "fact_hits": [
        "VISIT",
        "VISITNUM",
        "SV"
      ],
      "fact_misses": [],
      "answer_preview": "**VISIT and VISITNUM across observation-class domains**  \nThese variables provide a standardised temporal anchor — they tie each data record to a specific clinical encounter (visit). In any domain built on the **Interventions, Events, or Findings** observation classes, `VISITNUM` and `VISIT` (and optionally `VISITDY`) appear as **Timing** variables **[Source: domains/AG/spec.md, domains/FA/spec.md, domains/PE/spec.md]**.\n\n- **Planned visits** – The values **must** be those defined in the Trial Visits (TV) dataset. `VISITNUM` is a numeric identifier used for sorting; `VISIT` is the protocol’s c",
      "usage": {
        "prompt_tokens": 14386,
        "completion_tokens": 2023,
        "total_tokens": 16409
      },
      "model": "deepseek-v4-pro",
      "answer": "**VISIT and VISITNUM across observation-class domains**  \nThese variables provide a standardised temporal anchor — they tie each data record to a specific clinical encounter (visit). In any domain built on the **Interventions, Events, or Findings** observation classes, `VISITNUM` and `VISIT` (and optionally `VISITDY`) appear as **Timing** variables **[Source: domains/AG/spec.md, domains/FA/spec.md, domains/PE/spec.md]**.\n\n- **Planned visits** – The values **must** be those defined in the Trial Visits (TV) dataset. `VISITNUM` is a numeric identifier used for sorting; `VISIT` is the protocol’s character name; `VISITDY` is the planned study day *of the start* of the visit. A strict one‑to‑one relationship between `VISIT` and `VISITNUM` is required **[Source: chapters/ch04_general_assumptions.md §4.4.5]**. The TV dataset is the sole source of valid `VISITNUM` values for planned visits; any `VISITNUM` in subject‑level data not found in TV is assumed to belong to an **unplanned** visit **[Source: domains/TV/assumptions.md item 6]**.\n- **Unplanned visits** – Sponsors must still populate `VISITNUM` (commonly using a generic value like 99, or a chronological scheme applied after all unplanned visits are known), may leave `VISIT` null or assign a placeholder (e.g. “Unscheduled”), and must **not** populate `VISITDY` **[Source: chapters/ch04_general_assumptions.md §4.4.5]**.  \n- Across all observation‑class domains, this consistent usage allows regulators to map any finding, event, or intervention to the encounter when it occurred, and to compare timing across domains.\n\n**Role of the SV (Subject Visits) domain**  \nSV is a **Special‑Purpose** domain that records **one record per actual or planned visit per subject**. Here, `VISITNUM` is the **Topic** variable (the visit itself), not a timing variable **[Source: model/03_special_purpose_domains.md — SV Variables]**.\n\nSV serves as the **definitive record of what actually happened** by capturing:\n\n| Key variable | Purpose |\n|--------------|---------|\n| `SVPRESP` | Whether the visit was pre‑specified (Y/N) **[Source: VARIABLE_INDEX.md — SV]** |\n| `SVOCCUR` | Whether the visit actually occurred (Y/N) |\n| `SVSTDTC` / `SVENDTC` | Actual start and end date‑times of the visit |\n| `SVSTDY` / `SVENDY` | Study days derived from those dates |\n| `SVREASOC` | Reason if the visit did **not** occur |\n| `SVCNTMOD` | Contact mode (e.g., in‑person, remote) |\n| `SVEPCHGI` | Indicates a change driven by an epidemic/pandemic (e.g., COVID‑19) |\n| `SVUPDES` | Free‑text description for **unplanned** visits |\n\nThese data allow reviewers to:\n- Identify **planned visits that were missed** by comparing SV with TV **[Source: domains/SV/assumptions.md overview]**.\n- Detect **timing departures** — comparing `SVSTDY`/`SVENDY` with `VISITDY` (planned day) highlights deviations from the schedule **[Source: domains/SV/assumptions.md overview]**.\n- Determine which unplanned encounters should be treated as visits and assign a `VISITNUM` for use in other domains **[Source: domains/SV/assumptions.md item 6; domains/TV/assumptions.md item 6]**.\n\nBy linking back to observation‑class domains through `VISITNUM`, SV provides the **single source of truth for visit occurrence and timing** across the entire submission.",
      "elapsed_s": 38.33
    },
    {
      "id": "q33",
      "category": "cross_domain",
      "question": "What is the RELSPEC domain and how does it define relationships between datasets at the study level, as opposed to RELREC which links individual records?",
      "source_recall": 1.0,
      "source_hits": [
        "domains/RELSPEC/spec.md"
      ],
      "source_misses": [],
      "top5_sources": [
        "domains/RELSPEC/spec.md",
        "domains/RELREC/spec.md",
        "domains/RELREC/assumptions.md",
        "chapters/ch08_relationships.md",
        "chapters/ch08_relationships.md"
      ],
      "top5_similarities": [
        0.5814,
        0.6533,
        0.7707,
        0.7621,
        0.7252
      ],
      "fact_recall": 1.0,
      "fact_hits": [
        "RELSPEC",
        "RELREC"
      ],
      "fact_misses": [],
      "answer_preview": "Based on the provided context, the RELSPEC domain and the RELREC domain serve fundamentally different purposes. RELSPEC is designed exclusively for describing the lineage of biological specimens for individual subjects, while RELREC is a general-purpose tool that can define relationships between any records, groups of records, or entire datasets, including at the study level.\n\nHere is a breakdown of their distinct functions:\n\n### RELSPEC Domain (Related Specimens)\n\nRELSPEC is not used to define relationships between datasets or other domains. Its purpose is narrowly focused on tracking the gen",
      "usage": {
        "prompt_tokens": 15594,
        "completion_tokens": 1143,
        "total_tokens": 16737
      },
      "model": "deepseek-v4-pro",
      "answer": "Based on the provided context, the RELSPEC domain and the RELREC domain serve fundamentally different purposes. RELSPEC is designed exclusively for describing the lineage of biological specimens for individual subjects, while RELREC is a general-purpose tool that can define relationships between any records, groups of records, or entire datasets, including at the study level.\n\nHere is a breakdown of their distinct functions:\n\n### RELSPEC Domain (Related Specimens)\n\nRELSPEC is not used to define relationships between datasets or other domains. Its purpose is narrowly focused on tracking the genealogy of a specimen.\n\n*   **Purpose:** To describe relationships **between specimens**, such as a parent specimen and its derived aliquots or processed samples **[Source: model/06_relationship_datasets.md]**. This is often referred to as specimen lineage **[Source: model/06_relationship_datasets.md]**.\n*   **Scope:** It operates at the subject level. Its structure is \"One record per specimen identifier per subject\" **[Source: model/06_relationship_datasets.md]**.\n*   **Exclusivity:** The assumptions for RELSPEC explicitly state it is \"not used to manage relationships between any other datasets or domains\" and is \"only used to maintain relationships between specimens\" **[Source: domains/RELSPEC/assumptions.md]**.\n*   **Structure:** As it is only for specimens, it does not require the more complex relationship-defining variables found in RELREC, such as `RELTYPE` and `RELID` **[Source: domains/RELSPEC/assumptions.md]**. Instead, it uses variables like `REFID`, `SPEC`, `PARENT`, and `LEVEL` to build the specimen hierarchy **[Source: model/06_relationship_datasets.md]**.\n\n### RELREC Domain (Related Records)\n\nIn contrast to RELSPEC, the RELREC domain is designed to handle a wide range of relationships, including between individual records and between whole datasets.\n\n*   **Purpose:** It is a special-purpose dataset used to describe relationships for a subject in two main ways: 1) **relating peer records** within or across domains (e.g., linking an adverse event to a concomitant medication), and 2) **relating datasets** to define parent-child or other structural links **[Source: domains/RELREC/assumptions.md]**. This second function is how you define relationships at the study level.\n*   **How Dataset Relationships are Defined:** To relate entire datasets, RELREC uses its `RELTYPE` variable, which accepts the controlled terms \"ONE\" and \"MANY\" **[Source: chapters/ch08_relationships.md]**. This defines a hierarchical, study-level merge/join relationship.\n    *   A record with `RELTYPE=\"ONE\"` identifies the \"parent\" or one-side of the relationship.\n    *   A record with `RELTYPE=\"MANY\"` identifies the \"child\" or many-side.\n    *   The `IDVAR` in these records would contain the name of the merge key variable (like `--LNKID`), and `USUBJID` and `IDVARVAL` are left null for these dataset-level associations **[Source: chapters/ch08_relationships.md]**.\n*   **Contrast with Peer-Record Relationships:** When relating individual records or groups of records for a subject, the `RELTYPE` variable is left blank. Instead, the `RELID` variable is used to group the specific records belonging to the same relationship instance within a subject. In these cases, `USUBJID` and `IDVARVAL` (pointing to a specific record's `--SEQ` or `--GRPID`) are populated **[Source: chapters/ch08_relationships.md]**.\n*   **Summary:** The SDTM model summary confirms this distinction, listing RELREC's purpose as \"Link records/datasets\" and RELSPEC's as \"Specimen lineage\" **[Source: model/06_relationship_datasets.md]**.",
      "elapsed_s": 24.51
    },
    {
      "id": "q34",
      "category": "cross_domain",
      "question": "Which SDTM domains share the controlled terminology codelist for NY (No Yes Response, C66742), and what variable typically uses this codelist in those domains?",
      "source_recall": 1.0,
      "source_hits": [
        "VARIABLE_INDEX.md"
      ],
      "source_misses": [],
      "top5_sources": [
        "VARIABLE_INDEX.md",
        "terminology/core/general_part4.md",
        "chapters/ch04_general_assumptions.md",
        "chapters/ch04_general_assumptions.md",
        "model/01_concepts_and_terms.md"
      ],
      "top5_similarities": [
        0.4516,
        0.5903,
        0.6157,
        0.6351,
        0.5697
      ],
      "fact_recall": 1.0,
      "fact_hits": [
        "C66742",
        "NY"
      ],
      "fact_misses": [],
      "answer_preview": "Based on the retrieved context, I can confirm several domains that use the NY (No Yes Response, C66742) controlled terminology codelist, along with the specific variables involved. However, the context does not provide an exhaustive list of all domains that reference C66742, so this answer is limited to what is explicitly documented in the retrieved sources.\n\n---\n\n## Confirmed Domains and Variables Using C66742 (NY)\n\n### **SV — Subject Visits** (Special Purpose)\nThe following variables in SV use C66742 **[Source: domains/SV/spec.md § Controlled Terminology]**:\n| Variable | Label | Purpose |\n|-",
      "usage": {
        "prompt_tokens": 12944,
        "completion_tokens": 1764,
        "total_tokens": 14708
      },
      "model": "deepseek-v4-pro",
      "answer": "Based on the retrieved context, I can confirm several domains that use the NY (No Yes Response, C66742) controlled terminology codelist, along with the specific variables involved. However, the context does not provide an exhaustive list of all domains that reference C66742, so this answer is limited to what is explicitly documented in the retrieved sources.\n\n---\n\n## Confirmed Domains and Variables Using C66742 (NY)\n\n### **SV — Subject Visits** (Special Purpose)\nThe following variables in SV use C66742 **[Source: domains/SV/spec.md § Controlled Terminology]**:\n| Variable | Label | Purpose |\n|----------|-------|---------|\n| **SVPRESP** | Pre-Specified Visit | Flags whether the visit was pre-specified (planned) |\n| **SVOCCUR** | Occurrence | Indicates whether the visit occurred |\n| **SVEPCHGI** | Epoch Change Indicator | Indicates whether an epoch change occurred at this visit |\n\n### **TM — Trial Disease Milestones** (Trial Design)\nOne variable in TM uses C66742 **[Source: domains/TM/spec.md § Controlled Terminology]**:\n| Variable | Label | Purpose |\n|----------|-------|---------|\n| **TMRPT** | Report | Indicates whether the milestone was reported |\n\n---\n\n## General Pattern: `--PRESP` and `--OCCUR` Variables\n\nThe SDTMIG general assumptions confirm a broader pattern: **`--PRESP` variables across domains are associated with the NY codelist**, though only the value `\"Y\"` is allowed in these variables **[Source: chapters/ch04_general_assumptions.md §4.3.3]**. This means any domain containing a `--PRESP` variable (e.g., `FAPRESP` in the FA domain, or pre-specified flags in other Findings domains) will reference C66742, but only `\"Y\"` is valid for data collection planning.\n\nSimilarly, `--OCCUR` variables — commonly used in Interventions and Events domains to flag whether something occurred — typically use the NY codelist. The SV domain's `SVOCCUR` is one confirmed example of this pattern **[Source: domains/SV/spec.md]**.\n\n---\n\n## Codelist Values (C66742)\n\nThe NY codelist itself is **non-extensible** and contains four values **[Source: terminology/core/general_part4.md]**:\n\n| Code | Submission Value | Synonym(s) | Definition |\n|------|-----------------|------------|------------|\n| C49487 | **N** | No | The non-affirmative response to a question |\n| C48660 | **NA** | NA; Not Applicable | Determination of a value is not relevant in the current context |\n| C17998 | **U** | U; UNK; Unknown | Not known, not observed, not recorded, or refused |\n| C49488 | **Y** | Yes | The affirmative response to a question |\n\n---\n\n## Caveat on Coverage\n\nThe retrieved context does not include the full variable specifications for all 63 domains in the knowledge base. Other domains in the Interventions, Events, and Findings classes almost certainly use C66742 (e.g., `--OCCUR` in CM, EX, AE, MH, etc.; `--PRESP` in FA and other Findings domains), but those are **not explicitly confirmed** in the context provided. The SDTMIG §4.3.3 statement that \"`--PRESP` variables are associated with the NY codelist\" serves as a general rule, and the full list of domains with such variables would require consulting the individual domain specifications.",
      "elapsed_s": 32.97
    },
    {
      "id": "q11",
      "category": "concept",
      "question": "What are the three observation classes in the SDTM model?",
      "source_recall": 1.0,
      "source_hits": [
        "model/02_observation_classes.md"
      ],
      "source_misses": [],
      "top5_sources": [
        "model/01_concepts_and_terms.md",
        "model/02_observation_classes.md",
        "chapters/ch04_general_assumptions.md",
        "chapters/ch04_general_assumptions.md",
        "terminology/supplementary/supplementary_part5.md"
      ],
      "top5_similarities": [
        0.5632,
        0.7205,
        0.5452,
        0.5352,
        0.5473
      ],
      "fact_recall": 1.0,
      "fact_hits": [
        "Interventions",
        "Events",
        "Findings"
      ],
      "fact_misses": [],
      "answer_preview": "The SDTM model defines three **general observation classes** to categorize data collected during a study:\n\n1. **Interventions** – investigational, therapeutic, and other treatments administered to or used by a subject that have an actual or expected physiological effect.  \n2. **Events** – occurrences or incidents that happen to a subject spontaneously (e.g., adverse events, medical history).  \n3. **Findings** – measurements, tests, assessments, or examinations performed on a subject or a specimen (e.g., lab results, vital signs).\n\nThese three classes form the backbone of the SDTM and are used ",
      "usage": {
        "prompt_tokens": 14875,
        "completion_tokens": 500,
        "total_tokens": 15375
      },
      "model": "deepseek-v4-pro",
      "answer": "The SDTM model defines three **general observation classes** to categorize data collected during a study:\n\n1. **Interventions** – investigational, therapeutic, and other treatments administered to or used by a subject that have an actual or expected physiological effect.  \n2. **Events** – occurrences or incidents that happen to a subject spontaneously (e.g., adverse events, medical history).  \n3. **Findings** – measurements, tests, assessments, or examinations performed on a subject or a specimen (e.g., lab results, vital signs).\n\nThese three classes form the backbone of the SDTM and are used to structure most subject-level data domains. **[Source: model/02_observation_classes.md]** **[Source: chapters/ch04_general_assumptions.md (Section 4.1.1)]**",
      "elapsed_s": 11.88
    },
    {
      "id": "q12",
      "category": "concept",
      "question": "What do the Core designations Req, Exp, and Perm mean in SDTM?",
      "source_recall": 1.0,
      "source_hits": [
        "chapters/ch04"
      ],
      "source_misses": [],
      "top5_sources": [
        "chapters/ch04_general_assumptions.md",
        "VARIABLE_INDEX.md",
        "domains/SUPPQUAL/spec.md",
        "chapters/ch04_general_assumptions.md",
        "domains/CO/spec.md"
      ],
      "top5_similarities": [
        0.6571,
        0.5558,
        0.6055,
        5.7202,
        0.5926
      ],
      "fact_recall": 1.0,
      "fact_hits": [
        "Required",
        "Expected",
        "Permissible"
      ],
      "fact_misses": [],
      "answer_preview": "In SDTM, the Core column in domain specifications assigns one of three designations to each variable, defining its inclusion and nullability rules. Based on the general assumptions:\n\n- **Req (Required)**  \n  A variable essential to identify a record or make it meaningful.  \n  **Rule:** Must always be included in the dataset and cannot contain null values for any record.  \n\n- **Exp (Expected)**  \n  A variable necessary to make a record useful in the context of the domain; most records should have non‑null values, but some nulls are allowed when data were not collected or are not applicable.  \n ",
      "usage": {
        "prompt_tokens": 13661,
        "completion_tokens": 899,
        "total_tokens": 14560
      },
      "model": "deepseek-v4-pro",
      "answer": "In SDTM, the Core column in domain specifications assigns one of three designations to each variable, defining its inclusion and nullability rules. Based on the general assumptions:\n\n- **Req (Required)**  \n  A variable essential to identify a record or make it meaningful.  \n  **Rule:** Must always be included in the dataset and cannot contain null values for any record.  \n\n- **Exp (Expected)**  \n  A variable necessary to make a record useful in the context of the domain; most records should have non‑null values, but some nulls are allowed when data were not collected or are not applicable.  \n  **Rule:** The column must be included in the dataset. If the study did not collect the corresponding data item, the variable is still included (with null values) and a comment must be placed in the Define‑XML document stating that the study does not include that data.  \n\n- **Perm (Permissible)**  \n  A variable that may be used to represent a data item if it was collected.  \n  **Rule:** If the study collected data that would go into a Permissible variable, the variable **must be included** (even if all values are null) and declared in Define‑XML. If the study did **not** collect that data item at all, the variable **must not be included** and must not be declared in Define‑XML. (Domain‑specific assumptions that say a Permissible variable is “generally not used” do not prohibit its use.)  \n\nAdditionally, all identifier, timing, and general observation‑class variables listed in the SDTM are permissible in any domain unless explicitly restricted by the SDTMIG (Section 2.7) or by domain assumptions. **[Source: chapters/ch04_general_assumptions.md §4.1.5]**",
      "elapsed_s": 17.1
    },
    {
      "id": "q13",
      "category": "concept",
      "question": "What is the difference between Topic, Qualifier, and Identifier variable roles?",
      "source_recall": 1.0,
      "source_hits": [
        "model/01_concepts_and_terms.md"
      ],
      "source_misses": [],
      "top5_sources": [
        "model/01_concepts_and_terms.md",
        "model/06_relationship_datasets.md",
        "chapters/ch08_relationships.md",
        "chapters/ch04_general_assumptions.md",
        "domains/ML/assumptions.md"
      ],
      "top5_similarities": [
        0.4934,
        0.4564,
        0.4718,
        0.526,
        0.5227
      ],
      "fact_recall": 1.0,
      "fact_hits": [
        "Topic",
        "Qualifier",
        "Identifier"
      ],
      "fact_misses": [],
      "answer_preview": "The roles of **Identifier**, **Topic**, and **Qualifier** variables distinguish different types of information within an SDTM observation.\n\n### 1. Identifier Variables\nIdentifier variables are used to uniquely identify the record itself, specifying the study, the subject, the domain, and the record's sequence number. They provide the primary key for the observation.\n> \"**Identifier variables** — identify the study, subject, domain, and sequence number of the record\" **[Source: model/01_concepts_and_terms.md]**\n\n### 2. Topic Variables\nTopic variables specify the focus or subject matter of the o",
      "usage": {
        "prompt_tokens": 15417,
        "completion_tokens": 1101,
        "total_tokens": 16518
      },
      "model": "deepseek-v4-pro",
      "answer": "The roles of **Identifier**, **Topic**, and **Qualifier** variables distinguish different types of information within an SDTM observation.\n\n### 1. Identifier Variables\nIdentifier variables are used to uniquely identify the record itself, specifying the study, the subject, the domain, and the record's sequence number. They provide the primary key for the observation.\n> \"**Identifier variables** — identify the study, subject, domain, and sequence number of the record\" **[Source: model/01_concepts_and_terms.md]**\n\n### 2. Topic Variables\nTopic variables specify the focus or subject matter of the observation. Essentially, they define what the observation is about. Examples include the name of an adverse event or a laboratory test.\n> \"**Topic variables** — specify the focus of the observation (e.g., the name of a lab test)\" **[Source: model/01_concepts_and_terms.md]**\n\n### 3. Qualifier Variables\nQualifier variables provide additional descriptive information that modifies or further details the observation. This broad category is broken down into five subclasses that describe results, group records, or add context to a specific piece of the data.\n> \"**Qualifier variables** — include additional illustrative text or numeric values that describe the results or additional traits of the observation (e.g., units, descriptive adjectives)\" **[Source: model/01_concepts_and_terms.md]**\n\nThe five specific subclasses for qualifier variables are:\n\n| Subclass | Purpose | Examples |\n|----------|---------|----------|\n| **Grouping Qualifiers** | Group together a collection of observations | `--CAT`, `--SCAT` |\n| **Result Qualifiers** | Describe the specific results associated with the topic variable (Findings only) | `--ORRES`, `--STRESC`, `--STRESN` |\n| **Synonym Qualifiers** | Specify an alternative name for a particular variable | `--MODIFY`, `--DECOD` (for `--TRT`/`--TERM`); `--TEST`, `--LOINC` (for `--TESTCD`) |\n| **Record Qualifiers** | Define attributes of the observation record as a whole | `--REASND`, `AGE`, `SEX`, `--BLFL`, `--POS` |\n| **Variable Qualifiers** | Modify or describe a specific variable within an observation | `--ORRESU` (qualifies `--ORRES`); `--DOSU` (qualifies `--DOSE`) |\n\n> **[Source: chapters/ch02_fundamentals.md]**\n\n### Summary of Differences\nThe core difference lies in their function within an observation:\n\n- An **Identifier** tells you **which record** it is.\n- The **Topic** tells you **what the record is about**.\n- A **Qualifier** tells you **additional details** about the topic or the record itself.\n\nFor example, the SDTM model dissects the observation \"Subject 101 had mild nausea starting on study day 6\" as follows:\n- The **Topic** variable value is \"NAUSEA.\"\n- The **Identifier** variable ensures we know we are talking about \"Subject 101.\"\n- The severity \"mild\" is a **Record Qualifier** that further describes the nausea event.\n\n> **[Source: chapters/ch02_fundamentals.md]**",
      "elapsed_s": 21.53
    },
    {
      "id": "q14",
      "category": "concept",
      "question": "How should a sponsor create a new custom domain in SDTM?",
      "source_recall": 1.0,
      "source_hits": [
        "chapters/ch02"
      ],
      "source_misses": [],
      "top5_sources": [
        "chapters/ch04_general_assumptions.md",
        "chapters/ch02_fundamentals.md",
        "chapters/ch01_introduction.md",
        "chapters/ch04_general_assumptions.md",
        "chapters/ch03_submitting_data.md"
      ],
      "top5_similarities": [
        0.6011,
        0.4731,
        0.4777,
        0.4946,
        0.4894
      ],
      "fact_recall": 1.0,
      "fact_hits": [
        "observation class"
      ],
      "fact_misses": [],
      "answer_preview": "When a sponsor needs to create a custom SDTM domain (i.e., one not already defined by CDISC), the process involves determining the correct observation class, assigning a unique two‑character code, building the dataset using the SDTM variable templates, and documenting it properly. The key steps are:\n\n---\n\n### 1. Determine the General Observation Class\nFirst, classify the data according to the intended clinical meaning – not just its structure.\n\n- **Interventions**: Something done to a subject that is expected to have a physiological effect (e.g., a drug, procedure, meal).\n- **Events**: Somethi",
      "usage": {
        "prompt_tokens": 15770,
        "completion_tokens": 3108,
        "total_tokens": 18878
      },
      "model": "deepseek-v4-pro",
      "answer": "When a sponsor needs to create a custom SDTM domain (i.e., one not already defined by CDISC), the process involves determining the correct observation class, assigning a unique two‑character code, building the dataset using the SDTM variable templates, and documenting it properly. The key steps are:\n\n---\n\n### 1. Determine the General Observation Class\nFirst, classify the data according to the intended clinical meaning – not just its structure.\n\n- **Interventions**: Something done to a subject that is expected to have a physiological effect (e.g., a drug, procedure, meal).\n- **Events**: Something that happens to a subject spontaneously (e.g., adverse events, medical history).\n- **Findings**: Measurements, tests, assessments, or examinations performed on a subject or specimen (e.g., lab results, vital signs).\n\n**[Source: chapters/ch08_relationships.md §8.6.1]**\n\nIf the data do not fit into an existing special‑purpose domain (DM, CO, SE, SV, SM) or a standard domain, you may create a new domain based on one of the extensible general observation classes (Interventions, Events, Findings).  \n**[Source: model/01_concepts_and_terms.md – Concept Map showing green “extensible” boxes]**\n\n---\n\n### 2. Choose a Two‑Character Domain Code\nThe domain code must be two characters; the first character is a letter (A–Z), and the second can be a letter or digit (A–Z, 0–9).  \nTo avoid future conflicts with CDISC‑defined codes, **codes beginning with X, Y, or Z are reserved for custom domains**; any letter or number may follow. Using this reserve is optional, but strongly recommended.\n\n**[Source: chapters/ch04_general_assumptions.md §4.1.6]**\n\n---\n\n### 3. Apply the Code Consistently\nThe chosen domain code is used in four standard ways:\n\n1. As the dataset name (e.g., `xy.xpt`).\n2. As the value of the `DOMAIN` variable in every record of the dataset.\n3. As a **prefix** for most variable names (except required identifiers like `STUDYID`, `USUBJID`, `DOMAIN` itself, and some merge keys like `VISIT`/`VISITNUM`).\n4. As a value in the `RDOMAIN` column of relationship tables (RELREC, SUPPQUAL, etc.).\n\n**[Source: chapters/ch02_fundamentals.md – “Datasets and Domains”]**\n\n---\n\n### 4. Build the Variable Set from the SDTM Model\nFor each general observation class, the SDTM provides a standard set of variables (e.g., Interventions have `--TRT`, `--DOSE`, `--STDTC`, etc.; Events have `--TERM`, `--STDTC`, etc.; Findings have `--TESTCD`, `--ORRES`, etc.).  \nYou **replace the `--` prefix** with your new domain code (e.g., `XYTRT`, `XYDOSE`, `XYSTDTC` for an Interventions domain).  \n\n**[Source: chapters/ch04_general_assumptions.md §4.2.2 – “Two‑character Domain Identifier”]**\n\nAdd or omit variables as needed, respecting the core designations (Required, Expected, Permissible) and the standard variable roles (Identifier, Topic, Timing, Qualifier). Domain‑specific assumptions may be written to clarify usage; any supplemental non‑standard qualifiers should be placed in a supplemental qualifier dataset (SUPP--).  \n**[Source: chapters/ch03_submitting_data.md §3.1]**\n\n---\n\n### 5. Define Controlled Terminology\nUse CDISC Controlled Terminology wherever standard codelists exist (e.g., for `--TESTCD`/`--TEST` in Findings). For variables without standard terminology, you may define sponsor‑specific terms, but always check the latest CT publication.  \n**[Source: chapters/ch02_fundamentals.md – references to SDTMIG and CT; also ch03_submitting_data.md]**\n\n---\n\n### 6. Document Metadata\nThe custom domain must be described in a Define‑XML document with:\n\n- **Dataset‑level metadata**: name, description, class (Interventions/Events/Findings), structure (e.g., “one record per subject per intervention”), purpose (“Tabulation”), and primary keys.\n- **Variable‑level metadata**: order, label, type, role, core, and controlled terminology references for each variable.\n\n**[Source: chapters/ch03_submitting_data.md §3.2, §3.2.1]**\n\n---\n\n### Summary Table\n\n| Step | Key action | Key reference |\n|------|------------|---------------|\n| Classify | Decide if data are Interventions, Events, or Findings | ch08_relationships §8.6.1 |\n| Name | Select a two‑character code, preferably starting with X, Y, or Z | ch04 §4.1.6 |\n| Prefix | Replace `--` with the domain code; maintain standard `DOMAIN` variable | ch04 §4.2.2; ch02 §2.2 |\n| Model | Apply the complete variable set for the chosen observation class | ch02 §2.1, ch04 §4.2.2, model diagram |\n| Terminology | Use CDISC CT where available; document sponsor‑defined terms | ch03 §3.1 |\n| Metadata | Describe the dataset in Define‑XML with all standard attributes | ch03 §3.2 |\n\nFollowing these steps ensures that a custom domain conforms to SDTM v2.0 / SDTMIG v3.4 principles and can be submitted to regulatory authorities.",
      "elapsed_s": 60.08
    },
    {
      "id": "q15",
      "category": "concept",
      "question": "What are the three SDTM Core designation categories for variables, and what are the rules for handling a Permissible variable when a study did not collect the corresponding data item?",
      "source_recall": 1.0,
      "source_hits": [
        "chapters/ch04_general_assumptions.md"
      ],
      "source_misses": [],
      "top5_sources": [
        "chapters/ch04_general_assumptions.md",
        "chapters/ch01_introduction.md",
        "chapters/ch04_general_assumptions.md",
        "chapters/ch04_general_assumptions.md",
        "model/01_concepts_and_terms.md"
      ],
      "top5_similarities": [
        0.7806,
        0.6228,
        0.5995,
        0.5964,
        0.6896
      ],
      "fact_recall": 1.0,
      "fact_hits": [
        "Req",
        "Exp",
        "Perm"
      ],
      "fact_misses": [],
      "answer_preview": "## Three SDTM Core Designation Categories\n\nThe three categories specified in the **Core** column of domain models are:\n\n| Core Value | Meaning | Rule |\n|------------|---------|------|\n| **Req** (Required) | Basic to the identification of a data record (essential key variables and topic variable) or necessary to make the record meaningful. | Must always be included in the dataset and **cannot be null** for any record. |\n| **Exp** (Expected) | Any variable necessary to make a record useful in the context of a specific domain. | Must be included in the dataset; value should be populated when avai",
      "usage": {
        "prompt_tokens": 16093,
        "completion_tokens": 689,
        "total_tokens": 16782
      },
      "model": "deepseek-v4-pro",
      "answer": "## Three SDTM Core Designation Categories\n\nThe three categories specified in the **Core** column of domain models are:\n\n| Core Value | Meaning | Rule |\n|------------|---------|------|\n| **Req** (Required) | Basic to the identification of a data record (essential key variables and topic variable) or necessary to make the record meaningful. | Must always be included in the dataset and **cannot be null** for any record. |\n| **Exp** (Expected) | Any variable necessary to make a record useful in the context of a specific domain. | Must be included in the dataset; value should be populated when available, but null values are allowed. If the study does not include the data item, a null column must still be included and a comment must be added in the Define-XML document. |\n| **Perm** (Permissible) | May be included in the dataset at the sponsor's discretion. | See rules below. |\n\n**[Source: chapters/ch04_general_assumptions.md — 4.1.5 SDTM Core Designations]**\n\n---\n\n## Rules for Permissible Variables\n\nThe handling of Permissible variables depends on whether the study collected the corresponding data item:\n\n- **If the study collected the data item:** The Permissible variable **must** be included in the SDTM dataset (even if some values are null). Indicate in the Define-XML document that no data were available for that variable where applicable.\n\n- **If the study did NOT collect the data item:** The Permissible variable **should not be included** in the SDTM dataset and **should not be declared** in the Define-XML document.\n\nIn short: the presence or absence of a Permissible variable in the dataset is driven entirely by whether the corresponding data was part of the study's data collection. Do not include it if the study never captured that information.\n\n**[Source: chapters/ch04_general_assumptions.md — 4.1.5 SDTM Core Designations]**",
      "elapsed_s": 12.49
    },
    {
      "id": "q35",
      "category": "concept",
      "question": "What is Controlled Terminology (CT) in SDTM and how does it constrain the values that variables can contain?",
      "source_recall": 1.0,
      "source_hits": [
        "chapters/ch04"
      ],
      "source_misses": [],
      "top5_sources": [
        "chapters/ch04_general_assumptions.md",
        "chapters/ch04_general_assumptions.md",
        "model/01_concepts_and_terms.md",
        "model/01_concepts_and_terms.md",
        "chapters/ch10_appendices.md"
      ],
      "top5_similarities": [
        0.607,
        0.6771,
        0.6231,
        0.5926,
        0.6137
      ],
      "fact_recall": 1.0,
      "fact_hits": [
        "codelist",
        "Controlled Terms"
      ],
      "fact_misses": [],
      "answer_preview": "Based on the SDTM knowledge base, Controlled Terminology (CT) is a centrally managed set of permissible values that standardizes data and ensures consistency across studies.\n\n### What is Controlled Terminology?\n\nControlled Terminology in SDTM is a set of standard terms maintained by the **CDISC Controlled Terminology Team**, which supports the terminology needs of all CDISC foundational standards. The terminology is centrally published and managed through NCI Enterprise Vocabulary Services. **[Source: chapters/ch10_appendices.md]**\n\nIn domain specifications, the use of CT is indicated in the \"",
      "usage": {
        "prompt_tokens": 15565,
        "completion_tokens": 1162,
        "total_tokens": 16727
      },
      "model": "deepseek-v4-pro",
      "answer": "Based on the SDTM knowledge base, Controlled Terminology (CT) is a centrally managed set of permissible values that standardizes data and ensures consistency across studies.\n\n### What is Controlled Terminology?\n\nControlled Terminology in SDTM is a set of standard terms maintained by the **CDISC Controlled Terminology Team**, which supports the terminology needs of all CDISC foundational standards. The terminology is centrally published and managed through NCI Enterprise Vocabulary Services. **[Source: chapters/ch10_appendices.md]**\n\nIn domain specifications, the use of CT is indicated in the \"Controlled Terms, Codelist or Format\" column. Common notations include:\n*   A codelist name in parentheses, like `(NY)`, which is a hyperlink to the specific list of values.\n*   An asterisk (`*`) when CDISC CT does not yet exist but sponsors may use their own.\n*   Reference to an external system, such as \"MedDRA\" or \"ISO 3166-1 alpha-3\". **[Source: chapters/ch04_general_assumptions.md]**\n\n### How CT Constrains Variable Values\n\nControlled Terminology constrains a variable's content in a few key ways:\n\n1.  **Defines a Set of Allowed Values**\n    CT provides a specific codelist (a predefined list) of acceptable values for a variable. A variable's value set is thus limited to the terms in its designated codelist. For example, a `--PRESP` variable (pre-specified flag) is associated with the `NY` (Yes/No) codelist, but a further subset constraint is applied so that only the value \"Y\" is allowed. **[Source: chapters/ch04_general_assumptions.md]**\n\n2.  **Works with Core Designations to Enforce Non-null Values**\n    The SDTM Core designation (Required, Expected, or Permissible) determines how the codelist is implemented. For a **Required** variable, the value must be populated for every record and cannot be null. A null value is only implicitly allowed if the variable is not Required. This means that when a codelist is assigned to a Required variable, the submitted data must contain one of the values from that list for every single row. **[Source: chapters/ch04_general_assumptions.md]**\n\n3.  **Defines Format and Character Restrictions for Specific Variables**\n    For some variables, the terminology model imposes structural rules. For instance, values for `--TESTCD` (the short version of the test name) are subject to a specific constraint: they must be **limited to 8 characters** and cannot use characters other than letters, numbers, or underscores. This is to ensure compatibility with older transport file formats. This rule for `QNAM` (the qualifier name in SUPPQUAL datasets) is the same, but other \"CD\" variables like `ETCD` or `ARMCD` have different format rules. **[Source: chapters/ch04_general_assumptions.md]**\n\n4.  **Must Use the Correct Text Case**\n    When a value from a codelist is used, it should be submitted in the **exact text case** that appears in the source codelist or external code system like MedDRA. **[Source: chapters/ch04_general_assumptions.md]**",
      "elapsed_s": 26.83
    },
    {
      "id": "q36",
      "category": "concept",
      "question": "What are the timing variables in SDTM (such as --DTC, --STDTC, --ENDTC) and how are they structured across domains?",
      "source_recall": 1.0,
      "source_hits": [
        "chapters/ch04"
      ],
      "source_misses": [],
      "top5_sources": [
        "chapters/ch04_general_assumptions.md",
        "model/01_concepts_and_terms.md",
        "chapters/ch04_general_assumptions.md",
        "model/02_observation_classes.md",
        "domains/BE/assumptions.md"
      ],
      "top5_similarities": [
        0.6533,
        0.7001,
        0.6573,
        0.6517,
        0.6647
      ],
      "fact_recall": 1.0,
      "fact_hits": [
        "DTC",
        "STDTC",
        "ENDTC",
        "Timing"
      ],
      "fact_misses": [],
      "answer_preview": "The SDTM timing variables capture when observations occur, relative to study milestones. They are structured as a set of **variable templates** (prefixed with a two‑character domain code) that can be instantiated across all general‑observation‑class domains and, with restrictions, in some special‑purpose domains. The full model defines 48 timing variables, organized into five categories [Source: model/02_observation_classes.md §3.1.5]:\n\n**1. Visit and Epoch Variables (9 variables)**\n- VISITNUM (Visit Number), VISIT (Visit Name), VISITDY (Planned Study Day of Visit)\n- TAETORD (Planned Order of ",
      "usage": {
        "prompt_tokens": 15531,
        "completion_tokens": 2076,
        "total_tokens": 17607
      },
      "model": "deepseek-v4-pro",
      "answer": "The SDTM timing variables capture when observations occur, relative to study milestones. They are structured as a set of **variable templates** (prefixed with a two‑character domain code) that can be instantiated across all general‑observation‑class domains and, with restrictions, in some special‑purpose domains. The full model defines 48 timing variables, organized into five categories [Source: model/02_observation_classes.md §3.1.5]:\n\n**1. Visit and Epoch Variables (9 variables)**\n- VISITNUM (Visit Number), VISIT (Visit Name), VISITDY (Planned Study Day of Visit)\n- TAETORD (Planned Order of Element Within Arm)\n- EPOCH (Epoch) – the protocol‑defined time period with a study‑specific purpose\n- RPHASE, RPPLDY, RPPLSTDY, RPPLENDY (non‑human‑clinical repro‑phase variables)\n\n**2. Date/Time Variables (3 variables)**\n- `--DTC` (Date/Time of Collection) – primary date/time for the observation, stored in ISO 8601 extended format [Source: chapters/ch04_general_assumptions.md §4.4.1]\n- `--STDTC` (Start Date/Time of Observation) – used in Interventions and Events classes\n- `--ENDTC` (End Date/Time of Observation) – used when an intervention/event has a duration\n\n**3. Study Day Variables (15 variables)**\n- `--DY`, `--STDY`, `--ENDY` – derived from date/time variables and the subject’s reference start date (RFSTDTC). Study day 1 = RFSTDTC date; earlier days are negative (no day 0) [Source: chapters/ch04_general_assumptions.md §4.4.4]\n- `--NOMDY`, `--NOMLBL` (non‑human clinical)\n- Day‑relative‑to‑exposure variables: `--XDY`, `--XSTDY`, `--XENDY`\n- Day‑relative‑to‑challenge agent: `--CHDY`, `--CHSTDY`, `--CHENDY`\n- `--DUR` (Collected Duration, ISO 8601 duration)\n\n**4. Time Point Variables (5 variables)**\n- `--TPT` (Planned Time Point Name), `--TPTNUM` (Number), `--ELTM` (Planned Elapsed Time), `--TPTREF` (Time Point Reference), `--RFTDTC` (Date/Time of Reference Time Point)\n\n**5. Relative Timing Variables (16 variables)**\n- `--STRF` (Start Relative to Reference Period), `--ENRF` (End Relative to Reference Period)\n- `--EVLINT` (Evaluation Interval), `--EVINTX` (Interval Text)\n- `--STRTPT`, `--STTPT`, `--ENRTPT`, `--ENTPT` (start/end relative to time points)\n- Additional relative‑day variables `--RPDY`, `--RPSTDY`, `--RPENDY` (non‑human clinical)\n- And others detailed in the model chapter.\n\n### How Timing Variables Are Structured Across Domains\n\n- **Prefixed with domain code**: In any domain based on a general observation class, the “`--`” placeholder is replaced by the two‑character domain identifier (e.g., `AESTDTC`, `LBDTC`, `CMSTDTC`). Exceptions: `VISIT`, `VISITNUM`, `VISITDY` (no prefix) and the required identifiers (STUDYID, DOMAIN, USUBJID) [Source: chapters/ch04_general_assumptions.md §4.2.2].\n\n- **Class‑specific usage**:\n  - **Findings class**: `--DTC` represents the date/time of **collection** (or specimen collection, as in LB, BE), and `--STDTC` **must not be used** [Source: chapters/ch04_general_assumptions.md §4.4.8]. For single‑point collections, only `--DTC` is populated; for interval collections (e.g., 24‑h urine), `--DTC` holds the start and `--ENDTC` holds the end.\n  - **Interventions and Events classes**: `--STDTC` is the start of the intervention/event, and `--ENDTC` the end. `--DTC` is generally the date/time of data recording (except where domain‑specific assumptions override this, e.g., BE uses `BEDTC` for specimen collection, not data collection) [Source: domains/BE/assumptions.md item 6].\n  - **Special‑purpose domains**: Additional timing variables may be added only where specified in the domain‑model assumptions; it is generally inappropriate to add time‑point variables (e.g., `--TPT`) to visits (SV) or elements (SE) [Source: domains/SV/assumptions.md item 15, domains/SE/assumptions.md item 11].\n  - **Relationship datasets (SUPPQUAL, RELREC)**: No timing variables are allowed [Source: chapters/ch04_general_assumptions.md §4.1.3].\n\n- **EPOCH assignment**:\n  - In **Findings** domains, EPOCH is based on `--DTC` (the collection date).\n  - In **Interventions/Events** domains, EPOCH is based on `--STDTC` (start of the observation). Rare exceptions for findings based on interval collections might use `--ENDTC` if the start and end fall in different epochs [Source: chapters/ch04_general_assumptions.md §4.1.3.1].\n  - EPOCH should be null for pre‑study interventions/events or pre‑study findings, and is not imputed.\n\n- **All date/time variables** are stored as character strings in ISO 8601 extended format (`YYYY-MM-DDThh:mm:ss…`), with partial and incomplete dates permitted [Source: chapters/ch04_general_assumptions.md §4.4.1].\n\nIn summary, the 48 timing variables provide a consistent mechanism to capture absolute dates, study‑day offsets, protocol‑defined time points, and relative timing, while respecting class‑specific constraints on which variables apply.",
      "elapsed_s": 40.14
    },
    {
      "id": "q37",
      "category": "concept",
      "question": "What are the Special-Purpose datasets in SDTM and which domains fall into this category?",
      "source_recall": 1.0,
      "source_hits": [
        "model/03_special_purpose_domains.md"
      ],
      "source_misses": [],
      "top5_sources": [
        "model/01_concepts_and_terms.md",
        "model/02_observation_classes.md",
        "model/03_special_purpose_domains.md",
        "chapters/ch04_general_assumptions.md",
        "chapters/ch04_general_assumptions.md"
      ],
      "top5_similarities": [
        0.666,
        0.6624,
        0.657,
        0.5978,
        0.6636
      ],
      "fact_recall": 1.0,
      "fact_hits": [
        "Special-Purpose",
        "DM",
        "CO",
        "SE"
      ],
      "fact_misses": [],
      "answer_preview": "The Special-Purpose datasets in SDTM are a distinct category within the “Subject Data” group—separate from the three general observation classes (Interventions, Events, Findings)—and are defined as having specific standardized structures to capture information that is not an observation per se but is essential for subject‑level context.\n\n**Domains classified as Special‑Purpose in SDTMIG v3.4:**\n\n| Domain | Name | Description (from controlled-terminology definition) |\n|--------|------|------------------------------------------------------|\n| **CO** | Comments | A special‑purpose domain that con",
      "usage": {
        "prompt_tokens": 16475,
        "completion_tokens": 1647,
        "total_tokens": 18122
      },
      "model": "deepseek-v4-pro",
      "answer": "The Special-Purpose datasets in SDTM are a distinct category within the “Subject Data” group—separate from the three general observation classes (Interventions, Events, Findings)—and are defined as having specific standardized structures to capture information that is not an observation per se but is essential for subject‑level context.\n\n**Domains classified as Special‑Purpose in SDTMIG v3.4:**\n\n| Domain | Name | Description (from controlled-terminology definition) |\n|--------|------|------------------------------------------------------|\n| **CO** | Comments | A special‑purpose domain that contains comments that may be collected alongside other data. |\n| **DM** | Demographics | A special‑purpose domain that includes a set of essential standard variables that describe each subject in a clinical study. It is the parent domain for all other observations for human clinical subjects. |\n| **SE** | Subject Elements | A special‑purpose domain that records the actual study elements that a subject experienced. |\n| **SM** | Subject Disease Milestones | A special‑purpose domain that captures disease milestones at the subject level. |\n| **SV** | Subject Visits | A special‑purpose domain that contains one record per actual (or planned) visit per subject. |\n\n**Sources:**\n\n- The authoritative class assignment is given in the knowledge‑base index, which lists these five domains under “Special‑purpose Domains” with **Class = Special Purpose** **[Source: knowledge_base/INDEX.md – Special‑purpose Domains table]**.\n- The dataset‑level metadata example in the SDTMIG (Chapter 3) also explicitly flags CO, DM, SE, SM, and SV with the **Class** column set to “Special Purpose” **[Source: chapters/ch03_submitting_data.md – Section 3.2.1 Dataset‑level Metadata table]**.\n\n**Important distinction:** The relationship datasets (RELREC, SUPP‑‑, RELSUB, RELSPEC, etc.) are not Special‑Purpose; they belong to the separate **Relationship** class defined in the SDTM model. Even though SUPPQUAL is sometimes described in prose as a “special‑purpose dataset model,” its official class is Relationship and it should not be listed under Special‑Purpose domains **[Source: model/06_relationship_datasets.md; Rule 8 of this assistant’s instructions]**.\n\nThe DI domain was originally classified as Special‑Purpose but was re‑classified as a study‑reference dataset starting in SDTM v1.7; it is not a Special‑Purpose domain in the current SDTMIG v3.4 **[Source: domains/DI/assumptions.md – Overview]**.",
      "elapsed_s": 31.13
    },
    {
      "id": "q38",
      "category": "concept",
      "question": "How are SDTM domain abbreviation codes assigned? What are the rules for the two-character domain code?",
      "source_recall": 1.0,
      "source_hits": [
        "chapters/ch02"
      ],
      "source_misses": [],
      "top5_sources": [
        "chapters/ch04_general_assumptions.md",
        "domains/SV/spec.md",
        "domains/FT/spec.md",
        "domains/EX/spec.md",
        "domains/IE/spec.md"
      ],
      "top5_similarities": [
        0.6759,
        0.6703,
        0.6691,
        0.6691,
        0.6689
      ],
      "fact_recall": 1.0,
      "fact_hits": [
        "two-character",
        "DOMAIN"
      ],
      "fact_misses": [],
      "answer_preview": "Based on the provided context, SDTM domain abbreviation codes are assigned and governed by the following rules:\n\n**1. Assignment Authority for Standard Domains**\nStandard domain codes are taken from the CDISC Controlled Terminology codelist \"SDTM Domain Abbreviation\" (C66734). This ensures consistency across the model.\n**[Source: chapters/ch04_general_assumptions.md]**\n\n**2. Assignment for Custom Domains**\nTo prevent conflicts with future CDISC standard domain codes, sponsors creating new custom domains must use codes that begin with the letters **X, Y, or Z**. Any letter or number may be used",
      "usage": {
        "prompt_tokens": 10782,
        "completion_tokens": 718,
        "total_tokens": 11500
      },
      "model": "deepseek-v4-pro",
      "answer": "Based on the provided context, SDTM domain abbreviation codes are assigned and governed by the following rules:\n\n**1. Assignment Authority for Standard Domains**\nStandard domain codes are taken from the CDISC Controlled Terminology codelist \"SDTM Domain Abbreviation\" (C66734). This ensures consistency across the model.\n**[Source: chapters/ch04_general_assumptions.md]**\n\n**2. Assignment for Custom Domains**\nTo prevent conflicts with future CDISC standard domain codes, sponsors creating new custom domains must use codes that begin with the letters **X, Y, or Z**. Any letter or number may be used in the second position.\n**[Source: chapters/ch04_general_assumptions.md]**\n\n**3. Two-Character Code Format Rules**\nThe domain code is strictly a 2-character identifier. The technical rules for the characters are:\n- **First character**: Must be an uppercase letter (A–Z).\n- **Second character**: Must be an uppercase letter (A–Z) or a digit (0–9).\n- **No other characters** are permitted. This restriction ensures compatibility with SAS v5 transport files and eCTD file naming requirements.\n**[Source: chapters/ch04_general_assumptions.md]**\n\n**4. Usage of the Code**\nThe assigned two-character code serves multiple purposes: it acts as the dataset name (e.g., `dm.xpt` for Demographics), the value of the `DOMAIN` variable in that dataset, and a prefix for most variable names within the domain (e.g., `AETERM`), with specific exceptions noted for identifiers like `STUDYID`, `USUBJID`, and `DOMAIN` itself.\n**[Source: chapters/ch04_general_assumptions.md, chapters/ch02_fundamentals.md]**",
      "elapsed_s": 14.13
    },
    {
      "id": "q39",
      "category": "concept",
      "question": "What is the Findings About observation class and how does it differ from the standard Findings class?",
      "source_recall": 1.0,
      "source_hits": [
        "model/02_observation_classes.md"
      ],
      "source_misses": [],
      "top5_sources": [
        "domains/BS/spec.md",
        "chapters/ch08_relationships.md",
        "domains/CP/spec.md",
        "model/02_observation_classes.md",
        "domains/CV/spec.md"
      ],
      "top5_similarities": [
        0.7123,
        16.7017,
        0.7123,
        15.7114,
        0.7123
      ],
      "fact_recall": 1.0,
      "fact_hits": [
        "Findings About",
        "FAOBJ"
      ],
      "fact_misses": [],
      "answer_preview": "The **Findings About** observation class is a subtype of the **Findings** class, designed to represent observations that describe a property (a measurement, assessment, or evaluation) of an **event** or an **intervention**, rather than of a subject or specimen directly. It differs from the standard Findings class in these key ways:\n\n| Aspect | Standard Findings | Findings About |\n|--------|-------------------|----------------|\n| **Topic** | A test, measurement, or examination (e.g., lab test, vital sign, questionnaire item). The Topic variables `--TESTCD`/`--TEST` name the test. | A **property",
      "usage": {
        "prompt_tokens": 13759,
        "completion_tokens": 1468,
        "total_tokens": 15227
      },
      "model": "deepseek-v4-pro",
      "answer": "The **Findings About** observation class is a subtype of the **Findings** class, designed to represent observations that describe a property (a measurement, assessment, or evaluation) of an **event** or an **intervention**, rather than of a subject or specimen directly. It differs from the standard Findings class in these key ways:\n\n| Aspect | Standard Findings | Findings About |\n|--------|-------------------|----------------|\n| **Topic** | A test, measurement, or examination (e.g., lab test, vital sign, questionnaire item). The Topic variables `--TESTCD`/`--TEST` name the test. | A **property of an event or intervention** (e.g., severity, occurrence, toxicity grade). The Topic variables name the property being measured. |\n| **Object of observation** | Not explicitly identified; the observation is directly about the subject or a specimen. | **Explicitly identified** by the additional `--OBJ` variable (Record Qualifier), which holds the name of the event or intervention that the property is about. |\n| **Crucial variable** | `--TESTCD` (and `--TEST`) are required. | **Both `--TESTCD` and `--OBJ` are required** for every record; together they define what the observation is about. For example, `FATESTCD = \"SEV\"` (measurement) and `FAOBJ = \"Headache\"` (the event being assessed). |\n| **Allowed qualifiers** | Standard Findings qualifiers like `--ORRES`, `--STRESC`, `--METHOD`, etc., are used as needed. | The same Findings qualifiers are available, but certain Event‑class qualifiers (e.g., `--SEV`, `--TOXGR`, `--BODSYS`, `--MODIFY`) are **generally not used** in the Findings About domain because those attributes are now the **topic** of the observation (e.g., severity is recorded as `FATESTCD = \"SEV\"` with a result). |\n| **Model origin** | Defined in the Findings class template. | Sub‑type of Findings; defined with the addition of `--OBJ` and described in SDTM Section 3.1.3.1 and in the FA domain model. |\n| **Primary use case** | Planned clinical evaluations: laboratory tests, vital signs, questionnaires, physical exams, etc. | Repeated assessments of symptoms, severity of prespecified events, or any observation about an event/intervention that cannot be captured as a simple qualifier on the parent record, especially when timing differs from the event/intervention as a whole. |\n\n**[Source: model/02_observation_classes.md §3.1.3 – Findings About (Subtype)]**  \n**[Source: domains/FA/assumptions.md item 6]**  \n**[Source: chapters/ch08_relationships.md §8.6.3 – Guidelines for Differentiating Between Interventions, Events, Findings, and Findings About]**",
      "elapsed_s": 28.78
    },
    {
      "id": "q40",
      "category": "concept",
      "question": "What is the difference between collected data and derived data in SDTM, and how is the origin of a variable value indicated?",
      "source_recall": 1.0,
      "source_hits": [
        "chapters/ch04"
      ],
      "source_misses": [],
      "top5_sources": [
        "chapters/ch04_general_assumptions.md",
        "model/01_concepts_and_terms.md",
        "chapters/ch01_introduction.md",
        "model/06_relationship_datasets.md",
        "chapters/ch04_general_assumptions.md"
      ],
      "top5_similarities": [
        0.641,
        0.6331,
        0.5626,
        0.5606,
        0.5626
      ],
      "fact_recall": 1.0,
      "fact_hits": [
        "Collected",
        "Derived",
        "Origin"
      ],
      "fact_misses": [],
      "answer_preview": "The distinction between collected and derived data in SDTM primarily concerns the **origin** of the value, and this metadata must be communicated clearly to regulators.\n\n### 1. Definition: Collected vs. Derived\n\nThe core difference is where the data came from:\n\n- **Collected** data originates from a source external to the sponsor's derivation processes. According to the SDTMIG, this includes data recorded directly on a Case Report Form (CRF), received from a vendor, or output by a device. **[Source: chapters/ch04_general_assumptions.md]**\n- **Derived** data is created by the sponsor through an",
      "usage": {
        "prompt_tokens": 17283,
        "completion_tokens": 1135,
        "total_tokens": 18418
      },
      "model": "deepseek-v4-pro",
      "answer": "The distinction between collected and derived data in SDTM primarily concerns the **origin** of the value, and this metadata must be communicated clearly to regulators.\n\n### 1. Definition: Collected vs. Derived\n\nThe core difference is where the data came from:\n\n- **Collected** data originates from a source external to the sponsor's derivation processes. According to the SDTMIG, this includes data recorded directly on a Case Report Form (CRF), received from a vendor, or output by a device. **[Source: chapters/ch04_general_assumptions.md]**\n- **Derived** data is created by the sponsor through an algorithmic process and thus requires a traceable derivation algorithm. **[Source: chapters/ch04_general_assumptions.md]**\n\n**Key Nuance: Central Lab Derivations**\nA critical rule is that a value derived by a central laboratory according to its internal procedures is considered **collected**, not derived, for SDTM purposes. This is because the sponsor received the value as-is, not as a result of their own algorithm. **[Source: domains/LB/assumptions.md]**\n\n### 2. How Origin Is Indicated\n\nThe origin of a variable value is indicated using three primary mechanisms, depending on the type of variable and data:\n\n- **Define-XML Metadata (Variable-Level):** The primary method for communicating origin for standard SDTM variables. The origin element in the Define-XML file specifies whether data for an entire variable was \"CRF Collected\", \"Derived\", or \"Assigned\". A \"Derived\" origin signifies that all values in that column are algorithmically computed. **[Source: chapters/ch04_general_assumptions.md]**\n\n- **Define-XML Metadata (Value-Level):** When a single variable contains a mixture of both collected and derived records (e.g., a questionnaire score that might be captured on the CRF for some visits but operationally derived for others), variable-level metadata is insufficient. In these cases, sponsors must use **value-level metadata** in the Define-XML document to precisely describe the origin of each specific record. **[Source: chapters/ch04_general_assumptions.md]**\n\n- **The QORIG variable in SUPPQUAL:** For non-standard variables stored in a Supplemental Qualifiers (SUPP--) dataset, the origin is indicated directly in a column called `QORIG`. This is a Required (`Req`) Record Qualifier variable that takes values such as \"CRF\", \"Assigned\", or \"Derived\". Its purpose is to clarify the source of the data in the `QVAL` field, especially since a SUPP-- dataset often contains a mix of origins. The complementary `QEVAL` variable can further specify the evaluator if the result is subjective. **[Source: chapters/ch08_relationships.md]**\n\n**Supplementary Example: Derived Flag variable**\nIn Findings domains like Questionnaires (QS), an additional flag variable (`--DRVFL`) exists. When a total score that is conceptuality \"captured\" data is operationally derived by the sponsor, the derived flag is set to \"Y\" to mark that record, clearly distinguishing it from scores written by an investigator on a CRF. **[Source: domains/QS/assumptions.md]**",
      "elapsed_s": 24.76
    },
    {
      "id": "q41",
      "category": "concept",
      "question": "What are the Trial Design Model datasets in SDTM and what kind of study-level information do they capture?",
      "source_recall": 1.0,
      "source_hits": [
        "model/05_study_level_data.md"
      ],
      "source_misses": [],
      "top5_sources": [
        "model/01_concepts_and_terms.md",
        "chapters/ch04_general_assumptions.md",
        "model/05_study_level_data.md",
        "domains/TA/assumptions.md",
        "domains/TI/assumptions.md"
      ],
      "top5_similarities": [
        0.6589,
        0.66,
        0.8164,
        0.6195,
        0.6483
      ],
      "fact_recall": 1.0,
      "fact_hits": [
        "Trial Design",
        "TA",
        "TE",
        "TV"
      ],
      "fact_misses": [],
      "answer_preview": "The Trial Design Model (TDM) datasets in SDTM capture the planned design of a clinical trial at the study level. According to the SDTMIG v3.4, the TDM comprises the following seven domains:\n\n- **TA** – Trial Arms\n- **TD** – Trial Disease Assessments\n- **TE** – Trial Elements\n- **TI** – Trial Inclusion/Exclusion Criteria\n- **TM** – Trial Disease Milestones\n- **TS** – Trial Summary\n- **TV** – Trial Visits\n\n**[Source: Knowledge Base Index → Domains → Trial Design Domains]**\n\nEach domain describes a distinct aspect of the prospective study plan:\n\n| Domain | Study‑level information captured |\n|----",
      "usage": {
        "prompt_tokens": 16360,
        "completion_tokens": 2902,
        "total_tokens": 19262
      },
      "model": "deepseek-v4-pro",
      "answer": "The Trial Design Model (TDM) datasets in SDTM capture the planned design of a clinical trial at the study level. According to the SDTMIG v3.4, the TDM comprises the following seven domains:\n\n- **TA** – Trial Arms\n- **TD** – Trial Disease Assessments\n- **TE** – Trial Elements\n- **TI** – Trial Inclusion/Exclusion Criteria\n- **TM** – Trial Disease Milestones\n- **TS** – Trial Summary\n- **TV** – Trial Visits\n\n**[Source: Knowledge Base Index → Domains → Trial Design Domains]**\n\nEach domain describes a distinct aspect of the prospective study plan:\n\n| Domain | Study‑level information captured |\n|--------|----------------------------------|\n| **TA** | The planned **paths (arms)** through the trial, showing how subjects move from one trial element to the next across epochs. It records the transition rules and branching logic that govern which element a subject enters after leaving the current one. **[Source: domains/TA/assumptions.md – §7.1.2 and §7.1.3]** |\n| **TE** | The reusable **trial building blocks (elements)**. Each element corresponds to a period during which a subject is exposed to a specific treatment or activity. TE defines the element code, description, and the rule for ending the element. **[Source: domains/TA/assumptions.md – §7.1.2; domains/TE/examples.md]** |\n| **TV** | The schedule of **planned visits**, including visit name, timepoint, and windowing rules. It standardizes the timing of assessments across sites. **[Source: model/05_study_level_data.md – trial design data concept]** |\n| **TS** | Key **summary characteristics** of the trial (e.g., phase, indication, design, comparator, sample size, blinding) as structured parameter‑value pairs. **[Source: domains/TI/assumptions.md – §7.4 introduction]** |\n| **TI** | The complete set of **inclusion and exclusion criteria** as they appear in the protocol. This dataset provides the full list of eligibility rules, whereas the subject‑level IE domain records only criteria that a subject failed to meet. **[Source: domains/TI/assumptions.md – TI Assumptions]** |\n| **TD** | The planned schedule of **disease‑specific assessments** (e.g., tumor measurements, disease‑response evaluations). It defines assessment timelines and triggers within the trial design. **[Source: domains/TD/spec.md – Model Definition link to study_level_data.md]** |\n| **TM** | The **disease milestones** that are predefined in the protocol (e.g., progression, relapse, remission). TM serves as the study‑level counterpart to the subject‑level SM domain. **[Source: Knowledge Base Index – Trial Design Domains listing]** |\n\nIn summary, the Trial Design Model datasets work together to provide a machine‑readable, standardised representation of the trial’s structure, eligibility, treatment arms, visit schedule, and disease‑specific evaluation points. This allows reviewers to quickly grasp the trial design, compare studies, and cross‑check planned versus actual subject data.",
      "elapsed_s": 62.17
    },
    {
      "id": "q16",
      "category": "mixed",
      "question": "What values are allowed for AESEV and what is its codelist code?",
      "source_recall": 1.0,
      "source_hits": [
        "domains/AE/spec.md",
        "terminology/core/ae.md"
      ],
      "source_misses": [],
      "top5_sources": [
        "terminology/core/ae.md",
        "domains/AE/assumptions.md",
        "domains/DM/examples.md",
        "domains/AE/spec.md",
        "chapters/ch04_general_assumptions.md"
      ],
      "top5_similarities": [
        0.3821,
        0.6134,
        8.5566,
        0.602,
        7.5799
      ],
      "fact_recall": 1.0,
      "fact_hits": [
        "C66769",
        "MILD",
        "MODERATE",
        "SEVERE"
      ],
      "fact_misses": [],
      "answer_preview": "## AESEV – Allowed Values and Codelist Code\n\nAESEV (Severity/Intensity) uses the codelist **C66769 – Severity/Intensity Scale for Adverse Events** **[Source: domains/AE/spec.md]**.\n\nThe allowed values (non‑extensible) are:\n\n| Submission Value | Definition |\n|------------------|------------|\n| **MILD** | A type of adverse event that is usually transient and may require only minimal treatment or therapeutic intervention. The event does not generally interfere with usual activities of daily living. |\n| **MODERATE** | A type of adverse event that is usually alleviated with additional specific ther",
      "usage": {
        "prompt_tokens": 15247,
        "completion_tokens": 812,
        "total_tokens": 16059
      },
      "model": "deepseek-v4-pro",
      "answer": "## AESEV – Allowed Values and Codelist Code\n\nAESEV (Severity/Intensity) uses the codelist **C66769 – Severity/Intensity Scale for Adverse Events** **[Source: domains/AE/spec.md]**.\n\nThe allowed values (non‑extensible) are:\n\n| Submission Value | Definition |\n|------------------|------------|\n| **MILD** | A type of adverse event that is usually transient and may require only minimal treatment or therapeutic intervention. The event does not generally interfere with usual activities of daily living. |\n| **MODERATE** | A type of adverse event that is usually alleviated with additional specific therapeutic intervention. The event interferes with usual activities of daily living, causing discomfort but poses no significant or permanent risk of harm to the research participant. |\n| **SEVERE** | A type of adverse event that interrupts usual activities of daily living, or significantly affects clinical status, or may require intensive therapeutic intervention. |\n\nThese three values correspond to NCI codes C41338 (MILD), C41339 (MODERATE), and C41340 (SEVERE) in the terminology set **[Source: terminology/core/ae.md]**.",
      "elapsed_s": 14.74
    },
    {
      "id": "q17",
      "category": "mixed",
      "question": "How are date and time variables formatted in SDTM and what suffix do they use?",
      "source_recall": 1.0,
      "source_hits": [
        "chapters/ch04"
      ],
      "source_misses": [],
      "top5_sources": [
        "chapters/ch04_general_assumptions.md",
        "model/01_concepts_and_terms.md",
        "chapters/ch04_general_assumptions.md",
        "chapters/ch04_general_assumptions.md",
        "chapters/ch01_introduction.md"
      ],
      "top5_similarities": [
        0.763,
        0.6154,
        0.6041,
        0.5795,
        9.6467
      ],
      "fact_recall": 0.5,
      "fact_hits": [
        "DTC"
      ],
      "fact_misses": [
        "ISO 8601"
      ],
      "answer_preview": "Date and time variables in SDTM use the suffix **`DTC`** (Date/Time Character). The full variable name is typically formed as `<domain prefix>DTC`, for example `AESTDTC`, `VSDTC`, `DMDTC`.  \n\nThese variables store date/time information as **character strings in ISO 8601 extended format**, as required by the SDTMIG. The format pattern is:\n\n`YYYY-MM-DDThh:mm:ss(.n+)?(((+|-)hh:mm)|Z)?`\n\nKey rules include:\n- Components are separated by hyphens (`-`) for dates and colons (`:`) for times; the `T` separates date and time.\n- Right‑truncation indicates missing components (e.g., `2003-12` for unknown da",
      "usage": {
        "prompt_tokens": 16943,
        "completion_tokens": 683,
        "total_tokens": 17626
      },
      "model": "deepseek-v4-pro",
      "answer": "Date and time variables in SDTM use the suffix **`DTC`** (Date/Time Character). The full variable name is typically formed as `<domain prefix>DTC`, for example `AESTDTC`, `VSDTC`, `DMDTC`.  \n\nThese variables store date/time information as **character strings in ISO 8601 extended format**, as required by the SDTMIG. The format pattern is:\n\n`YYYY-MM-DDThh:mm:ss(.n+)?(((+|-)hh:mm)|Z)?`\n\nKey rules include:\n- Components are separated by hyphens (`-`) for dates and colons (`:`) for times; the `T` separates date and time.\n- Right‑truncation indicates missing components (e.g., `2003-12` for unknown day and time).\n- Missing intermediate components are represented by a single hyphen for each missing part (e.g., `2003---15` for an unknown month).\n- Time‑zone offset (`±hh:mm`) or `Z` for UTC is optional.\n- Fractional seconds are optional after a decimal point.\n- Spaces are **not allowed** in any ISO 8601 representation.\n- Imprecise dates can be expressed as an interval using a solidus `/` (e.g., `2003-12-01/2003-12-10`).\n\n**[Source: chapters/ch04_general_assumptions.md – 4.4.1 and 4.4.2]**  \n**[Source: domains/VS/spec.md – VSDTC definition]**  \n**[Source: domains/DM/spec.md – DMDTC definition]**  \n**[Source: domains/SS/spec.md – SSDTC definition]**",
      "elapsed_s": 15.62
    },
    {
      "id": "q18",
      "category": "mixed",
      "question": "Explain the MedDRA coding chain for adverse events from verbatim term to dictionary term.",
      "source_recall": 1.0,
      "source_hits": [
        "domains/AE/spec.md",
        "domains/AE/assumptions.md"
      ],
      "source_misses": [],
      "top5_sources": [
        "domains/AE/spec.md",
        "domains/AE/spec.md",
        "domains/AE/spec.md",
        "domains/AE/spec.md",
        "chapters/ch04_general_assumptions.md"
      ],
      "top5_similarities": [
        0.6135,
        0.5646,
        0.5637,
        0.5579,
        0.6726
      ],
      "fact_recall": 1.0,
      "fact_hits": [
        "AETERM",
        "AEMODIFY",
        "AEDECOD",
        "Preferred Term"
      ],
      "fact_misses": [],
      "answer_preview": "The MedDRA coding chain for adverse events in SDTM moves from the collected verbatim term to the dictionary-derived preferred term via an optional modification step, then populates all relevant levels of the MedDRA hierarchy. The following variables are involved:\n\n**1. Verbatim Term**  \n- **AETERM** – `Label: \"Reported Term for the Adverse Event\"`, `Role: Topic`, `Core: Req`  \n- This variable captures exactly what was recorded on the CRF. It is the **topic variable** of the AE domain and must always have a value.  \n  [**Source: domains/AE/spec.md – AETERM**]  \n  [**Source: domains/AE/assumptio",
      "usage": {
        "prompt_tokens": 14356,
        "completion_tokens": 2210,
        "total_tokens": 16566
      },
      "model": "deepseek-v4-pro",
      "answer": "The MedDRA coding chain for adverse events in SDTM moves from the collected verbatim term to the dictionary-derived preferred term via an optional modification step, then populates all relevant levels of the MedDRA hierarchy. The following variables are involved:\n\n**1. Verbatim Term**  \n- **AETERM** – `Label: \"Reported Term for the Adverse Event\"`, `Role: Topic`, `Core: Req`  \n- This variable captures exactly what was recorded on the CRF. It is the **topic variable** of the AE domain and must always have a value.  \n  [**Source: domains/AE/spec.md – AETERM**]  \n  [**Source: domains/AE/assumptions.md – item_2(a)**]\n\n**2. Modified Reported Term (Optional)**  \n- **AEMODIFY** – `Label: \"Modified Reported Term\"`, `Role: Synonym Qualifier for AETERM`, `Core: Perm`  \n- Sponsors may alter the verbatim term (e.g., for spelling, standardisation) to assist coding. The modified term is stored here; if no modification is needed, the variable is left blank.  \n  [**Source: domains/AE/spec.md – AEMODIFY**]  \n  [**Source: domains/AE/assumptions.md – item_2(b)**]\n\n**3. Dictionary‑Derived Term (Preferred Term)**  \n- **AEDECOD** – `Label: \"Dictionary-Derived Term\"`, `Role: Synonym Qualifier for AETERM`, `Core: Req`, `Controlled Terms: MedDRA`  \n- This is the MedDRA **Preferred Term (PT)** assigned to the event. It is required and is derived from **AETERM** or **AEMODIFY** (if modified). The sponsor must supply the dictionary name and version via the Define‑XML external codelist.  \n  [**Source: domains/AE/spec.md – AEDECOD**]  \n  [**Source: domains/AE/assumptions.md – item_2(c)**]  \n  [**Source: chapters/ch04_general_assumptions.md – 4.3.5 (MedDRA Coding for Events)**]\n\n**4. MedDRA Hierarchy Variables (All Perm/Exp)**  \nThe standard MedDRA hierarchy is represented in AE by the following variable pairs, one for the textual label and one for the numeric code:\n\n| Term Level | Label Variable (Char) | Code Variable (Num) | Core |\n|-------------|-----------------------|---------------------|------|\n| Lowest Level Term (LLT) | AELLT | AELLTCD | Exp |\n| Preferred Term (PT) | — (AEDECOD already serves this) | AEPTCD | Exp |\n| High Level Term (HLT) | AEHLT | AEHLTCD | Exp |\n| High Level Group Term (HLGT) | AEHLGT | AEHLGTCD | Exp |\n| System Organ Class (SOC) – Primary | AESOC | AESOCCD | Exp |\n| System Organ Class (SOC) – Analysis | AEBODSYS | AEBDSYCD | Exp |\n\n- **AEBODSYS** (`Record Qualifier, Exp`) is the SOC used for the sponsor’s analysis and summary tables; it may differ from the primary SOC. **AESOC** is the dictionary‑designated primary SOC.  \n- All of these variables are populated according to the MedDRA dictionary when coding is performed.  \n  [**Source: domains/AE/spec.md – AELLT, AELLTCD, AEPTCD, AEHLT, AEHLTCD, AEHLGT, AEHLGTCD, AEBODSYS, AEBDSYCD, AESOC, AESOCCD**]  \n  [**Source: chapters/ch04_general_assumptions.md – 4.3.5 (… intermediate levels … a pair of variables … for each of the levels …)**]  \n  [**Source: model/02_observation_classes.md – 3.1.2 The Events Observation Class (Topic and Qualifier Variables)**]\n\n**Summary of the Chain**  \n1. The CRF verbatim event description is stored in **AETERM**.  \n2. If the sponsor adapts the term for coding, the modified version is placed in **AEMODIFY**.  \n3. The MedDRA Preferred Term derived from the (possibly modified) term is stored in **AEDECOD** (required).  \n4. The full MedDRA hierarchy is then populated across **AELLT→AELLTCD, AEPTCD** (PT code), **AEHLT→AEHLTCD, AEHLGT→AEHLGTCD**, and the SOC variables **AEBODSYS/AEBDSYCD** (analysis SOC) and **AESOC/AESOCCD** (primary SOC).  \n5. The sponsor records the dictionary name and version in the Define‑XML.  \n\nThus the verbatim term moves through an optional cleaning step to the PT and then expands into the complete MedDRA hierarchy, with AEDECOD as the anchor point.",
      "elapsed_s": 40.91
    },
    {
      "id": "q19",
      "category": "mixed",
      "question": "What controlled terminology codelist is used for DSDECOD when DSCAT equals 'DISPOSITION EVENT', and list specific CDISC Submission Values from that codelist for reasons of non-completion.",
      "source_recall": 1.0,
      "source_hits": [
        "domains/DS/assumptions.md",
        "terminology/core/disposition.md"
      ],
      "source_misses": [],
      "top5_sources": [
        "domains/DS/spec.md",
        "terminology/core/disposition.md",
        "domains/DS/assumptions.md",
        "domains/DS/assumptions.md",
        "domains/DS/spec.md"
      ],
      "top5_similarities": [
        0.8036,
        0.634,
        0.7554,
        0.7186,
        0.7248
      ],
      "fact_recall": 1.0,
      "fact_hits": [
        "NCOMPLT",
        "C66727"
      ],
      "fact_misses": [],
      "answer_preview": "The controlled terminology codelist used for **DSDECOD** when `DSCAT = \"DISPOSITION EVENT\"` and the subject did **not** complete is the extensible codelist **NCOMPLT** (Completion/Reason for Non‑Completion), CT code **C66727**.  \n\nThis is specified in the DS domain specification:\n\n> *DSDECOD:* Controlled terminology for the name of disposition event or protocol milestone. … Codelist \"NCOMPLT\" is used for disposition events. **[Source: domains/DS/spec.md – DSDECOD CDISC Notes]**\n\nand in the DS assumptions:\n\n> When DSCAT = \"DISPOSITION EVENT\" … if the subject did not complete, DSDECOD will use t",
      "usage": {
        "prompt_tokens": 11526,
        "completion_tokens": 2198,
        "total_tokens": 13724
      },
      "model": "deepseek-v4-pro",
      "answer": "The controlled terminology codelist used for **DSDECOD** when `DSCAT = \"DISPOSITION EVENT\"` and the subject did **not** complete is the extensible codelist **NCOMPLT** (Completion/Reason for Non‑Completion), CT code **C66727**.  \n\nThis is specified in the DS domain specification:\n\n> *DSDECOD:* Controlled terminology for the name of disposition event or protocol milestone. … Codelist \"NCOMPLT\" is used for disposition events. **[Source: domains/DS/spec.md – DSDECOD CDISC Notes]**\n\nand in the DS assumptions:\n\n> When DSCAT = \"DISPOSITION EVENT\" … if the subject did not complete, DSDECOD will use the extensible Controlled Terminology Codelist **NCOMPLT**. **[Source: domains/DS/assumptions.md – item 3.b.ii]**\n\n**Specific CDISC Submission Values from NCOMPLT for reasons of non‑completion** that are referenced in the knowledge base include:\n\n* **LOST TO FOLLOW‑UP** – (example from assumption 3.b.ii) **[Source: domains/DS/assumptions.md – item 3.b.ii]**\n* **ADVERSE EVENT** – (cited when DSTERM is \"SEVERE NAUSEA\") **[Source: domains/DS/assumptions.md – item 5]**\n* **WITHDREW CONSENT** – (used when multiple reasons are reported; appears as a DSDECOD value) **[Source: domains/DS/assumptions.md – item 5]**\n\nBecause NCOMPLT is extensible, sponsors may add further values; the complete maintained list is found in the CDISC Terminology file for Completion/Reason for Non‑Completion (C66727).",
      "elapsed_s": 38.4
    },
    {
      "id": "q20",
      "category": "mixed",
      "question": "In the DM domain, what is the difference between the RFSTDTC/RFENDTC reference period pair and the RFXSTDTC/RFXENDTC pair, and under what circumstances will RFSTDTC be null?",
      "source_recall": 1.0,
      "source_hits": [
        "domains/DM/assumptions.md",
        "domains/DM/spec.md"
      ],
      "source_misses": [],
      "top5_sources": [
        "domains/DM/spec.md",
        "domains/DM/spec.md",
        "domains/DM/spec.md",
        "domains/DM/spec.md",
        "domains/DM/assumptions.md"
      ],
      "top5_similarities": [
        0.624,
        0.5839,
        0.55,
        0.547,
        0.6645
      ],
      "fact_recall": 1.0,
      "fact_hits": [
        "sponsor-defined",
        "screen failure"
      ],
      "fact_misses": [],
      "answer_preview": "Based on the SDTM specifications and assumptions for the Demographics (DM) domain, the key differences between the two reference period variable pairs are as follows:\n\n### RFSTDTC/RFENDTC vs. RFXSTDTC/RFXENDTC\n\nThe distinction lies in their definitions and flexibility for sponsor customization:\n\n*   **RFSTDTC/RFENDTC:** This pair is **sponsor-defined**. While it usually represents the date/time of first and last study exposure, it can be customized to represent a different period if the study design warrants it (e.g., using the enrollment date instead of the first dose date) to serve as the ba",
      "usage": {
        "prompt_tokens": 12069,
        "completion_tokens": 737,
        "total_tokens": 12806
      },
      "model": "deepseek-v4-pro",
      "answer": "Based on the SDTM specifications and assumptions for the Demographics (DM) domain, the key differences between the two reference period variable pairs are as follows:\n\n### RFSTDTC/RFENDTC vs. RFXSTDTC/RFXENDTC\n\nThe distinction lies in their definitions and flexibility for sponsor customization:\n\n*   **RFSTDTC/RFENDTC:** This pair is **sponsor-defined**. While it usually represents the date/time of first and last study exposure, it can be customized to represent a different period if the study design warrants it (e.g., using the enrollment date instead of the first dose date) to serve as the basis for study day calculations. **[Source: domains/DM/assumptions.md -- item_10]**\n*   **RFXSTDTC/RFXENDTC:** This pair has a **consistent, non-customizable definition** across all interventional studies. They always represent the date/time of the first and last study treatment exposure, respectively, to guarantee a reviewer has a standard reference period. **[Source: domains/DM/assumptions.md -- item_10]**\n\n### Circumstances Where RFSTDTC is Null\n\nRFSTDTC will be null for subjects who are not exposed to study treatment. In most interventional studies where RFSTDTC is defined as the first exposure date, this specifically applies to:\n*   Subjects who are screen failures (`ARMNRS = \"SCREEN FAILURE\"`).\n*   Subjects who were enrolled but not assigned to an arm (`ARMNRS = \"NOT ASSIGNED\"`).\n*   Subjects who were randomized but not treated (`ARMNRS = \"NOT TREATED\"`).\n\nA null value may also be appropriate if the sponsor defines RFSTDTC using a different protocol milestone, such as in a study where a subject is ultimately not eligible for the event that defines the reference start. **[Source: domains/DM/assumptions.md -- item_9]**",
      "elapsed_s": 14.84
    },
    {
      "id": "q42",
      "category": "mixed",
      "question": "In the LB domain, how are normal ranges represented using LBORNRLO and LBORNRHI, and what is the LBNRIND variable used for?",
      "source_recall": 1.0,
      "source_hits": [
        "domains/LB/spec.md",
        "domains/LB/assumptions.md"
      ],
      "source_misses": [],
      "top5_sources": [
        "domains/LB/spec.md",
        "domains/LB/spec.md",
        "domains/LB/spec.md",
        "domains/LB/spec.md",
        "domains/LB/assumptions.md"
      ],
      "top5_similarities": [
        0.7713,
        0.6935,
        0.6933,
        0.6692,
        0.764
      ],
      "fact_recall": 1.0,
      "fact_hits": [
        "LBORNRLO",
        "LBORNRHI",
        "LBNRIND"
      ],
      "fact_misses": [],
      "answer_preview": "In the **LB domain**, normal ranges for continuous numeric lab results are represented using **LBORNRLO** (Reference Range Lower Limit in Orig Unit) and **LBORNRHI** (Reference Range Upper Limit in Orig Unit). These two variables define the lower and upper ends of the reference range in the original collected units. According to their CDISC Notes, they “should be populated **only for continuous results**” **[2][3]** . For tests that produce non‑continuous, ordinal, or descriptive results (e.g., urine color, dipstick results), LBORNRLO and LBORNRHI are **null**; instead, a character‑based refer",
      "usage": {
        "prompt_tokens": 12947,
        "completion_tokens": 1152,
        "total_tokens": 14099
      },
      "model": "deepseek-v4-pro",
      "answer": "In the **LB domain**, normal ranges for continuous numeric lab results are represented using **LBORNRLO** (Reference Range Lower Limit in Orig Unit) and **LBORNRHI** (Reference Range Upper Limit in Orig Unit). These two variables define the lower and upper ends of the reference range in the original collected units. According to their CDISC Notes, they “should be populated **only for continuous results**” **[2][3]** . For tests that produce non‑continuous, ordinal, or descriptive results (e.g., urine color, dipstick results), LBORNRLO and LBORNRHI are **null**; instead, a character‑based reference range may be stored in **LBSTNRC** **[6]** .\n\nThe **LBNRIND** variable (“Reference Range Indicator”) is used to indicate **where the actual result falls relative to the reference range** defined by LBORNRLO and LBORNRHI (or, if sponsors choose, relative to the standardized ranges LBSTNRLO/LBSTNRHI or LBSTNRC). Its CDISC Notes give examples: “NORMAL”, “ABNORMAL”, “HIGH”, “LOW” **[1]** . It employs the controlled‑terminology codelist **C78736** **[1][8]** .\n\nCrucially, **LBNRIND is not a clinical‑significance flag**; it only states the position of the result against the reference limits. Clinical significance is captured separately in the **LBCLSIG** variable **[1][5]** . In their study metadata, sponsors must specify whether LBNRIND refers to the original or the standardized reference ranges and results **[1]** .",
      "elapsed_s": 22.02
    },
    {
      "id": "q43",
      "category": "mixed",
      "question": "What is the controlled terminology codelist for the SEX variable in the DM domain? Provide the codelist code and describe the Core designation.",
      "source_recall": 1.0,
      "source_hits": [
        "domains/DM/spec.md"
      ],
      "source_misses": [],
      "top5_sources": [
        "domains/DM/spec.md",
        "terminology/core/dm.md",
        "chapters/ch04_general_assumptions.md",
        "domains/DM/spec.md",
        "chapters/ch04_general_assumptions.md"
      ],
      "top5_similarities": [
        0.6578,
        0.5551,
        0.633,
        0.6311,
        0.5852
      ],
      "fact_recall": 1.0,
      "fact_hits": [
        "SEX",
        "C66731",
        "Req"
      ],
      "fact_misses": [],
      "answer_preview": "The controlled terminology codelist for the `SEX` variable in the DM domain is **\"Sex\"** with the codelist code **C66731** [1][2][4].  \n\n- The codelist is **not extensible** [2].  \n- The Core designation for `SEX` is **\"Req\" (Required)** [1]. This means the variable must be populated in every DM record.",
      "usage": {
        "prompt_tokens": 12218,
        "completion_tokens": 402,
        "total_tokens": 12620
      },
      "model": "deepseek-v4-pro",
      "answer": "The controlled terminology codelist for the `SEX` variable in the DM domain is **\"Sex\"** with the codelist code **C66731** [1][2][4].  \n\n- The codelist is **not extensible** [2].  \n- The Core designation for `SEX` is **\"Req\" (Required)** [1]. This means the variable must be populated in every DM record.",
      "elapsed_s": 8.6
    },
    {
      "id": "q44",
      "category": "mixed",
      "question": "In the VS domain, what is the controlled terminology codelist code for VSTESTCD, and give examples of standard vital signs test codes like systolic and diastolic blood pressure.",
      "source_recall": 1.0,
      "source_hits": [
        "domains/VS/spec.md"
      ],
      "source_misses": [],
      "top5_sources": [
        "domains/VS/spec.md",
        "terminology/core/vs.md",
        "domains/VS/spec.md",
        "domains/VS/spec.md",
        "VARIABLE_INDEX.md"
      ],
      "top5_similarities": [
        0.7284,
        0.4981,
        0.6737,
        0.6183,
        0.5512
      ],
      "fact_recall": 1.0,
      "fact_hits": [
        "C66741",
        "SYSBP",
        "DIABP"
      ],
      "fact_misses": [],
      "answer_preview": "For the VS domain, the variable **VSTESTCD** uses controlled terminology codelist **C66741** (Vital Signs Test Code) **[Source: domains/VS/spec.md, item VSTESTCD; terminology/core/vs.md, heading \"Vital Signs Test Code (C66741)\"]**.\n\nExamples of standard vital signs test codes from this codelist include:\n\n- **SYSBP** – Systolic Blood Pressure (shown in the VS example data table) **[Source: domains/VS/examples.md, row 1]**\n- **DIABP** – Diastolic Blood Pressure (listed explicitly in the codelist with its definition) **[Source: terminology/core/vs.md, entry C25299]**\n\nOther common codes (e.g., PU",
      "usage": {
        "prompt_tokens": 14801,
        "completion_tokens": 962,
        "total_tokens": 15763
      },
      "model": "deepseek-v4-pro",
      "answer": "For the VS domain, the variable **VSTESTCD** uses controlled terminology codelist **C66741** (Vital Signs Test Code) **[Source: domains/VS/spec.md, item VSTESTCD; terminology/core/vs.md, heading \"Vital Signs Test Code (C66741)\"]**.\n\nExamples of standard vital signs test codes from this codelist include:\n\n- **SYSBP** – Systolic Blood Pressure (shown in the VS example data table) **[Source: domains/VS/examples.md, row 1]**\n- **DIABP** – Diastolic Blood Pressure (listed explicitly in the codelist with its definition) **[Source: terminology/core/vs.md, entry C25299]**\n\nOther common codes (e.g., PULSE, TEMP, WEIGHT, HEIGHT) also appear in the VS domain examples, but SYSBP and DIABP directly match your request.",
      "elapsed_s": 19.71
    },
    {
      "id": "q45",
      "category": "mixed",
      "question": "What is the RACE variable in the DM domain, what codelist does it use, and what is its Core designation?",
      "source_recall": 1.0,
      "source_hits": [
        "domains/DM/spec.md"
      ],
      "source_misses": [],
      "top5_sources": [
        "domains/DM/spec.md",
        "terminology/core/dm.md",
        "domains/DM/examples.md",
        "domains/DM/examples.md",
        "domains/DM/assumptions.md"
      ],
      "top5_similarities": [
        0.6135,
        0.469,
        0.5662,
        0.5707,
        0.6038
      ],
      "fact_recall": 1.0,
      "fact_hits": [
        "RACE",
        "C74457",
        "Exp"
      ],
      "fact_misses": [],
      "answer_preview": "The RACE variable in the DM domain is defined as follows:\n\n- **Order:** 22  \n- **Label:** Race  \n- **Type:** Char  \n- **Role:** Record Qualifier  \n- **Core:** Exp (Expected)  \n- **Controlled Terms:** C74457 (Race)  \n- **CDISC Notes:** Race of the subject. Sponsors should refer to the FDA guidance regarding the collection of race. See assumption below regarding RACE. **[Source: domains/DM/spec.md]**\n\nThe codelist C74457 contains the following permissible submission values (names only, as per the terminology file):\n\n- AMERICAN INDIAN OR ALASKA NATIVE  \n- ASIAN  \n- BLACK OR AFRICAN AMERICAN  \n- N",
      "usage": {
        "prompt_tokens": 16326,
        "completion_tokens": 943,
        "total_tokens": 17269
      },
      "model": "deepseek-v4-pro",
      "answer": "The RACE variable in the DM domain is defined as follows:\n\n- **Order:** 22  \n- **Label:** Race  \n- **Type:** Char  \n- **Role:** Record Qualifier  \n- **Core:** Exp (Expected)  \n- **Controlled Terms:** C74457 (Race)  \n- **CDISC Notes:** Race of the subject. Sponsors should refer to the FDA guidance regarding the collection of race. See assumption below regarding RACE. **[Source: domains/DM/spec.md]**\n\nThe codelist C74457 contains the following permissible submission values (names only, as per the terminology file):\n\n- AMERICAN INDIAN OR ALASKA NATIVE  \n- ASIAN  \n- BLACK OR AFRICAN AMERICAN  \n- NATIVE HAWAIIAN OR OTHER PACIFIC ISLANDER  \n- NOT REPORTED  \n- OTHER  \n- UNKNOWN  \n- WHITE  \n\nThe codelist is not extensible. **[Source: terminology/core/dm.md]**\n\nThus, RACE is an Expected, Record Qualifier variable in Demographics (DM), governed by codelist C74457.",
      "elapsed_s": 17.79
    },
    {
      "id": "q46",
      "category": "mixed",
      "question": "What is the AEOUT (Outcome of Adverse Event) variable in the AE domain and what controlled terminology codelist code does it use?",
      "source_recall": 1.0,
      "source_hits": [
        "domains/AE/spec.md"
      ],
      "source_misses": [],
      "top5_sources": [
        "domains/AE/spec.md",
        "terminology/core/ae.md",
        "domains/AE/spec.md",
        "VARIABLE_INDEX.md",
        "domains/AE/assumptions.md"
      ],
      "top5_similarities": [
        0.7992,
        0.5705,
        0.6582,
        0.6157,
        0.7025
      ],
      "fact_recall": 1.0,
      "fact_hits": [
        "AEOUT",
        "C66768",
        "Perm"
      ],
      "fact_misses": [],
      "answer_preview": "The **AEOUT** variable in the AE domain represents the **Outcome of Adverse Event**. It is a **Perm**issible **Record Qualifier** of type **Char** that captures a description of the outcome of an event **[Source: domains/AE/spec.md – AEOUT]**.\n\n**Controlled Terminology Codelist**  \nAEOUT uses the codelist **Outcome of Event** with code **C66768** **[Source: terminology/core/ae.md – Outcome of Event (C66768)]**. This codelist is **not extensible** and contains the following values:\n\n| Code   | CDISC Submission Value                  | CDISC Definition |\n|--------|-------------------------------",
      "usage": {
        "prompt_tokens": 14999,
        "completion_tokens": 986,
        "total_tokens": 15985
      },
      "model": "deepseek-v4-pro",
      "answer": "The **AEOUT** variable in the AE domain represents the **Outcome of Adverse Event**. It is a **Perm**issible **Record Qualifier** of type **Char** that captures a description of the outcome of an event **[Source: domains/AE/spec.md – AEOUT]**.\n\n**Controlled Terminology Codelist**  \nAEOUT uses the codelist **Outcome of Event** with code **C66768** **[Source: terminology/core/ae.md – Outcome of Event (C66768)]**. This codelist is **not extensible** and contains the following values:\n\n| Code   | CDISC Submission Value                  | CDISC Definition |\n|--------|----------------------------------------|------------------|\n| C48275 | FATAL                                  | The termination of life as a result of an adverse event. |\n| C49494 | NOT RECOVERED/NOT RESOLVED             | Indicates that the event has not improved or recuperated. |\n| C49495 | RECOVERED/RESOLVED WITH SEQUELAE       | The subject recuperated but retains pathological conditions from the prior disease or injury. |\n| C49498 | RECOVERED/RESOLVED                     | The event has improved or recuperated. |\n| C49496 | RECOVERING/RESOLVING                   | The event is improving. |\n| C17998 | UNKNOWN                                | Not known, not observed, not recorded, or refused. |\n\nAll values are taken directly from the terminology file **[Source: terminology/core/ae.md – Outcome of Event (C66768)]**. The cross‑reference in the AE domain specification also confirms that AEOUT maps to C66768 **[Source: domains/AE/spec.md – Controlled Terminology]**.",
      "elapsed_s": 18.21
    },
    {
      "id": "q47",
      "category": "mixed",
      "question": "How do QS (Questionnaires) domains handle instrument-specific variables using QSCAT, and what role does QSTESTCD play in organizing question-level data?",
      "source_recall": 1.0,
      "source_hits": [
        "domains/QS/spec.md",
        "domains/QS/assumptions.md"
      ],
      "source_misses": [],
      "top5_sources": [
        "VARIABLE_INDEX.md",
        "domains/QS/spec.md",
        "chapters/ch04_general_assumptions.md",
        "chapters/ch08_relationships.md",
        "domains/SUPPQUAL/examples.md"
      ],
      "top5_similarities": [
        0.6339,
        0.6923,
        0.6635,
        0.5798,
        0.6612
      ],
      "fact_recall": 1.0,
      "fact_hits": [
        "QSTESTCD",
        "QSCAT",
        "Topic"
      ],
      "fact_misses": [],
      "answer_preview": "QS handles all questionnaires in a single, generic Findings domain structure—the form and meaning of instrument-specific data are carried by two key variables: **QSCAT** (instrument grouping) and **QSTESTCD** (question code). No per-instrument variables are created.\n\n---\n\n## QSCAT — Instrument Identifier and Grouping\n\n**QSCAT** is a **Grouping Qualifier** (Req) that identifies which questionnaire a row belongs to. It answers “Which instrument?”\n\n- Label: **Category of Question**\n- Type: Char, Controlled Terms: **C100129**\n- CDISC Notes: *\"Used to specify the questionnaire in which the question",
      "usage": {
        "prompt_tokens": 16611,
        "completion_tokens": 2031,
        "total_tokens": 18642
      },
      "model": "deepseek-v4-pro",
      "answer": "QS handles all questionnaires in a single, generic Findings domain structure—the form and meaning of instrument-specific data are carried by two key variables: **QSCAT** (instrument grouping) and **QSTESTCD** (question code). No per-instrument variables are created.\n\n---\n\n## QSCAT — Instrument Identifier and Grouping\n\n**QSCAT** is a **Grouping Qualifier** (Req) that identifies which questionnaire a row belongs to. It answers “Which instrument?”\n\n- Label: **Category of Question**\n- Type: Char, Controlled Terms: **C100129**\n- CDISC Notes: *\"Used to specify the questionnaire in which the question identified by QSTEST and QSTESTCD was included. Examples: 'ADAS-COG', 'MDS-UPDRS'.\"* 【2†L3-L4】\n\nUsing QSCAT, the entire QS domain can be filtered or split into instrument‑specific datasets (e.g., QS36 for SF‑36) while keeping the variable structure identical. 【3†L3-L8】 This allows:\n\n- **Physical splitting** – if the domain is split on QSCAT, QSCAT must not be null 【3†L2】 and the split datasets retain DOMAIN = \"QS\".  \n- **Supplemental metadata** – when instrument‑level attributes (e.g., language) cannot be stored in QS rows, they are placed in **SUPPQUAL** with `RDOMAIN = \"QS\"`, `IDVAR = QSCAT`, and `IDVARVAL` equal to the QSCAT value (e.g., \"BPI\", \"ADAS-COG\").【5†L1-L5】【6†L1-L2】\n\n---\n\n## QSTESTCD — Question-Level Topic\n\n**QSTESTCD** is the **Topic** variable (Req) that uniquely identifies each question within a questionnaire. It answers “Which question?”\n\n- Label: **Question Short Name**\n- Type: Char, Role: **Topic**\n- Core: **Req**\n- CDISC Notes: *\"Topic variable for QS. Short name for the value in QSTEST, which can be used as a column name when converting the dataset from a vertical format to a horizontal format. The value in QSTESTCD cannot be longer than 8 characters, nor can it start with a number … Controlled terminology for QSTESTCD is published in separate codelists for each questionnaire. … Examples: 'ADCCMD01', 'BPR0103'.\"* 【7†L3-L4】\n\nBecause each questionnaire has its own controlled‑terminology codelist for QSTESTCD/‑TEST, the same QS structure accommodates hundreds of instruments without needing instrument‑specific columns. A typical QS row therefore contains:\n\n- `QSTESTCD` (question code) + `QSTEST` (synonym‑qualifier that holds the full question text)  \n- `QSORRES` / `QSSTRESC` / `QSSTRESN` (results)  \n- Timing variables (QSDTC, QSDY, etc.)  \n- `QSCAT` linking the row to its parent instrument  \n\nThis combination ensures that question‑level data remain vertically normalised, fully traceable to published terminology, and ready for transposition or analysis by instrument and question.",
      "elapsed_s": 40.97
    },
    {
      "id": "q48",
      "category": "mixed",
      "question": "What is the FATESTCD variable's controlled terminology codelist code in the FA domain, and give examples of standard FA test codes?",
      "source_recall": 1.0,
      "source_hits": [
        "domains/FA/spec.md"
      ],
      "source_misses": [],
      "top5_sources": [
        "domains/FA/spec.md",
        "terminology/core/findings_about.md",
        "domains/FA/assumptions.md",
        "domains/FA/spec.md",
        "chapters/ch04_general_assumptions.md"
      ],
      "top5_similarities": [
        0.678,
        0.4042,
        0.6327,
        0.6766,
        0.5692
      ],
      "fact_recall": 1.0,
      "fact_hits": [
        "FATESTCD",
        "C101832"
      ],
      "fact_misses": [],
      "answer_preview": "The FATESTCD variable in the FA domain uses the controlled terminology codelist **Findings About Test Code (C101832)** [1].\n\nExamples of standard test codes from this extensible codelist include [2]:\n\n- **OCCUR** — Occurrence Indicator\n- **SEV** — Severity/Intensity\n- **TOXGR** — Toxicity Grade\n- **ACNDEV** — Action Taken With Device\n- **ACMITYPE** — Acute Myocardial Infarction Type\n\nThese codes, particularly `OCCUR`, `SEV`, and `TOXGR`, are derived from event or intervention domain qualifier variable names when representing findings about a part of an event or intervention [6].",
      "usage": {
        "prompt_tokens": 15802,
        "completion_tokens": 568,
        "total_tokens": 16370
      },
      "model": "deepseek-v4-pro",
      "answer": "The FATESTCD variable in the FA domain uses the controlled terminology codelist **Findings About Test Code (C101832)** [1].\n\nExamples of standard test codes from this extensible codelist include [2]:\n\n- **OCCUR** — Occurrence Indicator\n- **SEV** — Severity/Intensity\n- **TOXGR** — Toxicity Grade\n- **ACNDEV** — Action Taken With Device\n- **ACMITYPE** — Acute Myocardial Infarction Type\n\nThese codes, particularly `OCCUR`, `SEV`, and `TOXGR`, are derived from event or intervention domain qualifier variable names when representing findings about a part of an event or intervention [6].",
      "elapsed_s": 12.67
    },
    {
      "id": "s01",
      "category": "single_domain",
      "question": "In the DM domain, what is the controlled terminology codelist code for the SEX variable, and what are its four permitted submission values?",
      "source_recall": 1.0,
      "source_hits": [
        "terminology/core/dm.md",
        "domains/DM/spec.md"
      ],
      "source_misses": [],
      "top5_sources": [
        "domains/DM/spec.md",
        "terminology/core/dm.md",
        "domains/DM/assumptions.md",
        "domains/DM/spec.md",
        "chapters/ch04_general_assumptions.md"
      ],
      "top5_similarities": [
        0.6528,
        0.5864,
        0.556,
        0.5862,
        0.5688
      ],
      "fact_recall": 1.0,
      "fact_hits": [
        "C66731",
        "F",
        "M",
        "U",
        "UNDIFFERENTIATED"
      ],
      "fact_misses": [],
      "answer_preview": "The controlled terminology codelist code for the SEX variable in the DM domain is **C66731** (the \"Sex\" codelist). **[Source: [1], [2]]**\n\nThe four permitted submission values (CDISC Submission Value) in that codelist are:\n\n- **F** (Female)\n- **M** (Male)\n- **U** (Unknown)\n- **UNDIFFERENTIATED** (a person with indeterminate sex or combined features) **[Source: [2]]**",
      "usage": {
        "prompt_tokens": 14036,
        "completion_tokens": 798,
        "total_tokens": 14834
      },
      "model": "deepseek-v4-pro",
      "answer": "The controlled terminology codelist code for the SEX variable in the DM domain is **C66731** (the \"Sex\" codelist). **[Source: [1], [2]]**\n\nThe four permitted submission values (CDISC Submission Value) in that codelist are:\n\n- **F** (Female)\n- **M** (Male)\n- **U** (Unknown)\n- **UNDIFFERENTIATED** (a person with indeterminate sex or combined features) **[Source: [2]]**",
      "elapsed_s": 18.86
    },
    {
      "id": "s02",
      "category": "concept",
      "question": "What is the SUPPQUAL variable QNAM and what character constraints apply to it? What is the maximum length and what characters are allowed?",
      "source_recall": 1.0,
      "source_hits": [
        "domains/SUPPQUAL/spec.md",
        "model/06_relationship_datasets.md"
      ],
      "source_misses": [],
      "top5_sources": [
        "domains/SUPPQUAL/spec.md",
        "domains/SUPPQUAL/spec.md",
        "domains/SUPPQUAL/spec.md",
        "domains/SUPPQUAL/spec.md",
        "chapters/ch04_general_assumptions.md"
      ],
      "top5_similarities": [
        0.6726,
        0.6267,
        0.5758,
        0.4786,
        0.5437
      ],
      "fact_recall": 0.8,
      "fact_hits": [
        "QNAM",
        "8 characters",
        "cannot start with a number",
        "Qualifier Variable Name"
      ],
      "fact_misses": [
        "letters, numbers, or underscores"
      ],
      "answer_preview": "**QNAM** is the **Qualifier Variable Name** in the SUPPQUAL (Supplemental Qualifiers) dataset. It provides a short name for a non-standard variable, acting as a column name when the supplemental qualifier is transposed into a domain view alongside the parent domain’s data **[Source: domains/SUPPQUAL/spec.md]**.\n\nCharacter constraints for QNAM are as follows:\n\n- **Maximum length:** 8 characters **[Source: domains/SUPPQUAL/spec.md]**; this mirrors the restriction on `--TESTCD` because QNAM serves the same purpose within supplemental qualifier datasets **[Source: chapters/ch04_general_assumptions",
      "usage": {
        "prompt_tokens": 15309,
        "completion_tokens": 638,
        "total_tokens": 15947
      },
      "model": "deepseek-v4-pro",
      "answer": "**QNAM** is the **Qualifier Variable Name** in the SUPPQUAL (Supplemental Qualifiers) dataset. It provides a short name for a non-standard variable, acting as a column name when the supplemental qualifier is transposed into a domain view alongside the parent domain’s data **[Source: domains/SUPPQUAL/spec.md]**.\n\nCharacter constraints for QNAM are as follows:\n\n- **Maximum length:** 8 characters **[Source: domains/SUPPQUAL/spec.md]**; this mirrors the restriction on `--TESTCD` because QNAM serves the same purpose within supplemental qualifier datasets **[Source: chapters/ch04_general_assumptions.md, §4.2.1]**.\n- **Allowed characters:** Only letters, numbers, and underscores. No other characters (e.g., no hyphens, spaces, or special symbols) are permitted **[Source: domains/SUPPQUAL/spec.md]; [Source: chapters/ch04_general_assumptions.md, §4.2.1]**.\n- **Cannot start with a number:** QNAM values must begin with a letter or underscore, not a digit (e.g., `1TEST` is invalid) **[Source: domains/SUPPQUAL/spec.md]; [Source: chapters/ch04_general_assumptions.md, §4.2.1]**.",
      "elapsed_s": 12.04
    },
    {
      "id": "s03",
      "category": "cross_domain",
      "question": "The DM variable RFXSTDTC is defined as equal to the earliest value of which variable in the EX domain? Similarly, RFXENDTC is equal to the latest value of which EX variable (or which fallback variable if that is not collected)?",
      "source_recall": 1.0,
      "source_hits": [
        "domains/DM/spec.md",
        "domains/EX/spec.md"
      ],
      "source_misses": [],
      "top5_sources": [
        "domains/DM/spec.md",
        "domains/EX/spec.md",
        "domains/DM/assumptions.md",
        "domains/DM/spec.md",
        "domains/DM/spec.md"
      ],
      "top5_similarities": [
        0.6568,
        0.5803,
        0.6371,
        0.6269,
        0.5537
      ],
      "fact_recall": 1.0,
      "fact_hits": [
        "EXSTDTC",
        "RFXSTDTC",
        "EXENDTC",
        "RFXENDTC",
        "earliest",
        "latest"
      ],
      "fact_misses": [],
      "answer_preview": "Based on the provided context:\n\n**RFXSTDTC** is defined as equal to the earliest value of **EXSTDTC** in the EX domain. **[Source: [4] domains/DM/spec.md -- RFXSTDTC]**\n\n**RFXENDTC** is defined as equal to the latest value of **EXENDTC**. If EXENDTC was not collected or is missing, the fallback variable is **EXSTDTC**. **[Source: [1] domains/DM/spec.md -- RFXENDTC]**",
      "usage": {
        "prompt_tokens": 14562,
        "completion_tokens": 359,
        "total_tokens": 14921
      },
      "model": "deepseek-v4-pro",
      "answer": "Based on the provided context:\n\n**RFXSTDTC** is defined as equal to the earliest value of **EXSTDTC** in the EX domain. **[Source: [4] domains/DM/spec.md -- RFXSTDTC]**\n\n**RFXENDTC** is defined as equal to the latest value of **EXENDTC**. If EXENDTC was not collected or is missing, the fallback variable is **EXSTDTC**. **[Source: [1] domains/DM/spec.md -- RFXENDTC]**",
      "elapsed_s": 8.64
    },
    {
      "id": "s04",
      "category": "mixed",
