[
 {
  "id": "q01",
  "category": "single_domain",
  "question": "What is AETERM and what are its variable attributes in the AE domain?",
  "expected_facts": [
   "Topic",
   "Char",
   "Req",
   "Verbatim"
  ],
  "answer": "## AETERM — Reported Term for the Adverse Event\n\n**AETERM** is the topic variable for the AE (Adverse Events) domain. It captures the verbatim name of the adverse event as reported/collected on the case report form (CRF).\n\n### Variable Attributes\n\n| Attribute | Value |\n|-----------|-------|\n| **Order** | 9 |\n| **Label** | Reported Term for the Adverse Event |\n| **Type** | Char |\n| **Controlled Terms** | (none — free text) |\n| **Role** | Topic |\n| **Core** | Req |\n| **CDISC Notes** | Verbatim name of the event. |\n\n**[Source: domains/AE/spec.md — AETERM]**\n\n### Key Business Rules\n\n1. **Required variable**: AETERM must always have a value. **[Source: domains/AE/assumptions.md — item_2a]**\n\n2. **Verbatim collection**: AETERM captures the exact term as collected from the source (e.g., CRF). It is the topic variable for the AE dataset. **[Source: domains/AE/assumptions.md — item_2a]**\n\n3. **Modification for coding**: If the sponsor's procedures permit modifying the verbatim term to facilitate coding, the modified term is stored in **AEMODIFY** (a permissible variable). **[Source: domains/AE/assumptions.md — item_2b]**\n\n4. **Dictionary coding**: The verbatim term in AETERM (or AEMODIFY, if modified) is coded using a standard dictionary (e.g., MedDRA), and the resulting Preferred Term is stored in **AEDECOD**. **[Source: domains/AE/assumptions.md — item_2c]**\n\n5. **Multiple values**: If multiple values are reported for AETERM (e.g., \"Headache and nausea\"), the sponsor is expected to split the values into separate records or otherwise resolve the multiplicity per data management SOPs. **[Source: chapters/ch04_general_assumptions.md — §4.2.8.1]**\n\n### Relationship to Other Variables\n\n| Variable | Relationship to AETERM |\n|----------|----------------------|\n| **AEMODIFY** | Modified verbatim term (if sponsor permits modification for coding) |\n| **AEDECOD** | Dictionary-derived term (Preferred Term from MedDRA) — required |\n| **AEBODSYS** | System Organ Class from the coding dictionary |\n\n**[Source: domains/AE/assumptions.md — item_2a–2d; chapters/ch04_general_assumptions.md — §4.3.6]**"
 },
 {
  "id": "q02",
  "category": "single_domain",
  "question": "What are the required (Core=Req) variables in the DM domain?",
  "expected_facts": [
   "STUDYID",
   "DOMAIN",
   "USUBJID",
   "SUBJID",
   "SITEID",
   "SEX",
   "COUNTRY"
  ],
  "answer": "Based on the DM domain specification, the required (Core=Req) variables in the DM domain are:\n\nFrom the DM spec.md file, the following variables are identified as Required:\n\n1. **STUDYID** - Study Identifier (Identifier, Req)\n2. **DOMAIN** - Domain Abbreviation (Identifier, Req) — Two-character abbreviation for the domain [Source: domains/DM/spec.md]\n3. **USUBJID** - Unique Subject Identifier (Identifier, Req)\n\nThese three Required Identifiers are explicitly noted as exceptions to the domain-prefix naming convention, as they are \"usually used as keys when merging/joining observations\" [Source: chapters/ch04_general_assumptions.md §4.2.2].\n\nThe DM domain is described as \"a special-purpose domain that includes a set of essential standard variables that describe each subject in a clinical study\" and serves as \"the parent domain for all other observations for human clinical subjects\" [Source: domains/DM/assumptions.md].\n\n**Note:** The DM domain specification table itself (spec.md) lists all variables with their Core designations. The Required variables (STUDYID, DOMAIN, USUBJID) must always be included in the dataset and cannot be null for any record, per the Core designation rules [Source: chapters/ch04_general_assumptions.md §4.1.5]."
 },
 {
  "id": "q03",
  "category": "single_domain",
  "question": "What are the key assumptions for adverse event data collection and coding?",
  "expected_facts": [
   "AETERM",
   "MedDRA",
   "AEDECOD"
  ],
  "answer": "# Key Assumptions for Adverse Event Data Collection and Coding\n\nBased on the SDTMIG v3.4 knowledge base, here are the key assumptions for adverse event (AE) data collection and coding:\n\n## 1. AE Definition and Scope\n\nThe AE dataset includes clinical data describing \"any untoward medical occurrence in a patient or clinical investigation subject administered a pharmaceutical product and which does not necessarily have to have a causal relationship with this treatment\" (ICH E2A). Sponsors may extend or limit the scope of AE collection in consultation with regulatory authorities (e.g., collecting pre-treatment events related to trial conduct, not collecting events assessed as efficacy endpoints). The events included should be consistent with protocol requirements. **[Source: domains/AE/assumptions.md -- item_1]**\n\n## 2. AE Description and Coding\n\n- **AETERM** is the topic variable capturing the verbatim term collected for the event. It is a **required** variable and must have a value. **[Source: domains/AE/assumptions.md -- item_2a]**\n- **AEMODIFY** is a **permissible** variable, included if the sponsor's procedure permits modification of a verbatim term for coding. **[Source: domains/AE/assumptions.md -- item_2b]**\n- **AEDECOD** is the preferred term derived from the coding dictionary (e.g., MedDRA). It is a **required** variable and must have a value. The dictionary name and version must be provided in Define-XML. **[Source: domains/AE/assumptions.md -- item_2c]**\n- **AEBODSYS** is the system organ class (SOC) from the coding dictionary. This value may differ from the primary SOC in the dictionary's standard hierarchy. It is expected to be populated. **[Source: domains/AE/assumptions.md -- item_2d]**\n\n## 3. Prespecified Terms and Event Presence/Absence\n\n- Adverse events can be collected via **free text** or a **prespecified list of terms**. **[Source: domains/AE/assumptions.md -- item_4a]**\n- **AEPRESP** = \"Y\" indicates the event was prespecified on the CRF. **[Source: domains/AE/assumptions.md -- item_4a]**\n- If prespecified events that did **not** occur need to be reported, these should be submitted in a **Findings About Events and Interventions (FA)** dataset, not in AE. **[Source: domains/AE/assumptions.md -- item_4b]**\n- For studies collecting both prespecified and free-text events: AEPRESP = \"Y\" for prespecified events, null for free-text events. **[Source: domains/AE/assumptions.md -- item_4c]**\n- Do **not** include records indicating \"no adverse events\" — only include records for events that actually occurred. **[Source: domains/AE/assumptions.md -- item_4d]**\n\n## 4. Seriousness Classification\n\n- If \"Serious?\" is answered \"No\", seriousness category variables (e.g., AESCAN, AESCONG) may be null. If \"Yes\", at least one will have \"Y\". **[Source: domains/AE/assumptions.md -- item_7a]**\n- If the CRF collects a response for each seriousness category, all category variables (e.g., AESDTH, AESHOSP) would be populated and AESER derived. **[Source: domains/AE/assumptions.md -- item_7a]**\n- \"Involves cancer\" (AESCAN) and \"Occurred with overdose\" (AESOD) are not part of the ICH definition but are available for studies under pre-ICH guidelines. **[Source: domains/AE/assumptions.md -- item_7b]**\n- Descriptions of \"Other Medically Important Serious Adverse Events\" should be placed in SUPPAE using QNAM = AEOSP. **[Source: domains/AE/assumptions.md -- item_7c]**\n\n## 5. Severity vs. Toxicity Grade\n\n- Use **AETOXGR** (not AESEV) when using a standard toxicity scale like CTCAE v3.0. In most cases, either AESEV or AETOXGR is populated, but not both. **[Source: domains/AE/assumptions.md -- item_7d]**\n\n## 6. Record Structure (One Record Per Event)\n\nThe AE domain structure is **1 record per adverse event per subject**. It is the sponsor's responsibility to define an event. Options include: **[Source: domains/AE/assumptions.md -- item_7e]**\n\n- **Option i**: One record per unique event, \"collapsed\" to the highest level of severity, causality, seriousness, and final outcome.\n- **Option ii**: One record per event, with changes over time submitted as separate events (or in FA domain).\n- **Option iii**: Other approaches as defined by the sponsor.\n\n## 7. EPOCH and TAETORD\n\nWhen EPOCH is included, it should be based on **AESTDTC** (start of the adverse event), not AEENDTC. The computational method in Define-XML should describe assumptions for ambiguous cases (e.g., when AESTDTC and SESTDTC lack sufficient precision). Similarly, TAETORD should reflect the start of the event. **[Source: domains/AE/assumptions.md -- item_8]**\n\n## 8. Relationship to Other Domains\n\n- **FA Domain**: Used for findings about events (e.g., severity assessments at each visit, occurrence of prespecified AEs). See FA assumptions for criteria on when to use FA vs. AE. **[Source: domains/FA/assumptions.md -- item_6; domains/FA/examples.md -- Example 6, Example 4]**\n- **RELREC**: Used to represent relationships between AE records and other domain records (e.g., DS records for disposition due to an AE). **[Source: domains/DS/examples.md -- Example 4]**\n- **SUPPAE**: Used for non-standard variables (e.g., AEOSP for \"Other Medically Important SAE\" description). **[Source: domains/SUPPQUAL/examples.md -- Example 1]**\n- **CE Domain**: Sponsors must ensure all adverse events are recorded in the AE domain, not CE. **[Source: domains/CE/assumptions.md -- item_3]**"
 },
 {
  "id": "q04",
  "category": "single_domain",
  "question": "What is the purpose of the TV (Trial Visits) domain and what variables does it contain?",
  "expected_facts": [
   "VISITNUM",
   "VISIT"
  ],
  "answer": "## TV (Trial Visits) Domain — Purpose and Variables\n\n### Purpose\n\nThe TV (Trial Visits) domain describes the **protocol-defined planned schedule of subject encounters** at the healthcare facility where the study is being conducted. It is part of the Trial Design Model and provides the planned scheduling of visits to which a subject's actual visits (recorded in SV) can be compared. **[Source: domains/TV/assumptions.md — overview]**\n\nVisits are defined as \"clinical encounters\" and are described using timing variables. The TV dataset, together with the TD (Trial Disease Assessments) and TM (Trial Disease Milestones) datasets, provides the planned schedule of assessments for the trial. **[Source: domains/TV/assumptions.md — overview]**\n\n### Variables\n\nThe TV domain contains the following variables (from the specification):\n\n| Order | Variable | Label | Type | Role | Core | Controlled Terms |\n|-------|----------|-------|------|------|------|-----------------|\n| 1 | STUDYID | Study Identifier | Char | Identifier | Req | — |\n| 2 | DOMAIN | Domain Abbreviation | Char | Identifier | Req | TV |\n| 3 | VISITNUM | Visit Number | Num | Topic | Req | — |\n| 4 | VISIT | Visit Name | Char | Synonym Qualifier | Req | — |\n| 5 | VISITDY | Planned Visit Day | Num | Timing | Req | — |\n| 6 | ARMCD | Planned Arm Code | Char | Topic | Perm | (Arm Code) |\n| 7 | ARM | Planned Arm | Char | Synonym Qualifier | Perm | — |\n| 8 | TVSTRL | Visit Start Rule | Char | Rule | Req | — |\n| 9 | TVENRL | Visit End Rule | Char | Rule | Perm | — |\n\n**[Source: domains/TV/spec.md — VISIT, TVSTRL; VARIABLE_INDEX.md — TV section]**\n\n### Key Structural Rules\n\n1. **General structure**: \"One Record per Planned Visit per Arm\" — but for many blinded trials where the schedule is the same for all arms, the structure is \"One Record per Planned Visit\" (ARMCD left blank). **[Source: domains/TV/assumptions.md — item_1]**\n\n2. **Visit start rules** (TVSTRL) describe when a visit should occur, usually expressed relative to the start or end of an element or epoch (e.g., \"1 week after start of Treatment Epoch\"). **[Source: domains/TV/examples.md — Trial Visits Issues]**\n\n3. **Visit end rules** (TVENRL) describe when a visit should end, expressed relative to the start or end of an element or epoch, or relative to the start of the visit. **[Source: domains/TV/examples.md — Trial Visits Issues]**\n\n4. **Related domains**: Same class (Trial Design) includes TA, TD, TE, TI, TM, TS. The TV dataset references arms via TA, and actual subject visits are recorded in SV. **[Source: domains/TV/spec.md — Related Domains]**\n\n### Example Data\n\nFor a parallel design with specific timings:\n\n| STUDYID | DOMAIN | VISITNUM | TVSTRL | TVENRL |\n|---------|--------|----------|--------|--------|\n| EX1 | TV | 1 | Start of Screen Epoch | 1 hour after start of Visit |\n| EX1 | TV | 2 | 30 minutes before end of Screen Epoch | 30 minutes after start of Run-in Epoch |\n| EX1 | TV | 3 | 30 minutes before end of Run-in Epoch | 1 hour after start of Treatment Epoch |\n| EX1 | TV | 4 | 1 week after start of Treatment Epoch | 1 hour after start of Visit |\n| EX1 | TV | 5 | 2 weeks after start of Treatment Epoch | 1 hour after start of Visit |\n\n**[Source: domains/TV/examples.md — Example 1]**"
 },
 {
  "id": "q05",
  "category": "single_domain",
  "question": "In the PE (Physical Examination) domain, what is the structure of the dataset, what is the role of the PETESTCD variable, and what value should PETESTCD have when the results of the entire physical examination are represented in one record?",
  "expected_facts": [
   "PETESTCD",
   "Topic",
   "PHYSEXAM"
  ],
  "answer": "Based on the provided context, here is the answer to your question:\n\n### Dataset Structure\n\nThe PE (Physical Examination) domain is a **Findings** class domain. The dataset structure is **\"One record per body system examined per subject per visit\"** (implied by the examples and variable roles). Each record represents the finding for a specific body system (e.g., Head, Skin, Heart) assessed during a physical examination. **[Source: domains/PE/examples.md]**\n\n### Role of PETESTCD\n\n**PETESTCD** (Body System Examined Short Name) has the role of **Topic**. This means it is the main variable that identifies the specific observation or focus of the record. In the PE domain, it identifies the body system that was examined. **[Source: domains/PE/spec.md]**\n\n### Value for a Single Record Representing the Entire Exam\n\nWhen the results of the entire physical examination are represented in a single record (rather than one record per body system), the value for **PETESTCD** should be **\"PHYSEXAM\"**. **[Source: domains/PE/spec.md]**\n\n### Summary of PETESTCD Variable Attributes\n\n| Attribute | Value |\n|-----------|-------|\n| **Label** | Body System Examined Short Name |\n| **Type** | Char |\n| **Role** | Topic |\n| **Core** | Req |\n| **Controlled Terms** | None specified (free text, but with specific formatting rules) |\n| **CDISC Notes** | Cannot be longer than 8 characters, cannot start with a number, and can only contain letters, numbers, or underscores. Examples: \"HEAD\", \"ENT\". Use \"PHYSEXAM\" for a single record representing the entire exam. |"
 },
 {
  "id": "q21",
  "category": "single_domain",
  "question": "What is the LBTESTCD variable in the LB (Laboratory Test Results) domain? Describe its role, controlled terminology codelist code, and naming constraints.",
  "expected_facts": [
   "Topic",
   "C65047",
   "8 characters"
  ],
  "answer": "## LBTESTCD — Lab Test or Examination Short Name\n\nBased on the SDTMIG v3.4 knowledge base, here is the complete specification for LBTESTCD:\n\n### Variable Definition\n\n| Attribute | Value |\n|-----------|-------|\n| **Label** | Lab Test or Examination Short Name |\n| **Type** | Char |\n| **Role** | Topic |\n| **Core** | Required |\n| **Controlled Terms** | C65047 (Laboratory Test Code) |\n\n**[Source: domains/LB/spec.md — LBTESTCD]**\n\n### Role\n\nAs a **Topic variable**, LBTESTCD specifies the focus of the observation — in this case, the abbreviated name of the laboratory test or examination being performed. It serves as the primary identifier for the test within the LB domain and can be used as a column name when converting a dataset from a vertical to a horizontal format.\n\n**[Source: chapters/ch02_fundamentals.md — §2.1 Observations and Variables]**\n\n### Controlled Terminology\n\nLBTESTCD uses the **Laboratory Test Code (C65047)** codelist. This codelist contains standardized short names for laboratory tests, such as:\n- `ALT` — Alanine Aminotransferase\n- `LDH` — Lactate Dehydrogenase\n- `ALB` — Albumin\n- `CRP` — C-Reactive Protein\n\nThe full list of permitted values is maintained in the CDISC/NCI controlled terminology and can be found in the terminology file for LB Part 2.\n\n**[Source: domains/LB/spec.md — Controlled Terminology; terminology/core/lb_part2.md]**\n\n### Naming Constraints\n\nLBTESTCD has three specific naming constraints:\n\n1. **Maximum length**: Cannot be longer than **8 characters**\n2. **First character**: Cannot start with a number (e.g., `\"1TEST\"` is not valid)\n3. **Allowed characters**: Can only contain **letters, numbers, or underscores** — no special characters or spaces\n\n**[Source: domains/LB/spec.md — LBTESTCD, CDISC Notes]**\n\n### Relationship to LBTEST\n\nLBTESTCD is the short name counterpart to **LBTEST** (Lab Test or Examination Name), which uses controlled terminology code **C67154**. LBTEST contains the full verbatim name (e.g., \"Alanine Aminotransferase\") and has a maximum length of 40 characters. LBTESTCD serves as the Topic variable, while LBTEST is classified as a **Synonym Qualifier**.\n\n**[Source: domains/LB/spec.md — LBTEST]**\n\n### Example Values\n\n| LBTESTCD | LBTEST |\n|----------|--------|\n| ALT | Alanine Aminotransferase |\n| LDH | Lactate Dehydrogenase |\n| ALB | Albumin |\n| CRP | C-Reactive Protein |\n| PSA | Prostate Specific Antigen |\n\n**[Source: domains/LB/spec.md — LBTESTCD, CDISC Notes; domains/LB/examples.md — Example 1]**"
 },
 {
  "id": "q22",
  "category": "single_domain",
  "question": "What is the VS (Vital Signs) domain and what are some examples of VSTESTCD values? Include the codelist code.",
  "expected_facts": [
   "Findings",
   "VSTESTCD",
   "C66741"
  ],
  "answer": "## VS (Vital Signs) Domain Overview\n\nThe VS domain is a **Findings** class domain used to represent vital signs measurements collected during a clinical trial, such as blood pressure, heart rate, temperature, respiratory rate, and body mass index. **[Source: domains/VS/spec.md]**\n\n### VSTESTCD — Vital Signs Test Short Name\n\n- **Label:** Vital Signs Test Short Name\n- **Type:** Char\n- **Role:** Topic\n- **Core:** Req (Required)\n- **Controlled Terms:** **C66741** (Vital Signs Test Code)\n- **CDISC Notes:** Short name of the measurement, test, or examination described in VSTEST. Cannot be longer than 8 characters, cannot start with a number, and cannot contain characters other than letters, numbers, or underscores. **[Source: domains/VS/spec.md]**\n\n### Examples of VSTESTCD Values\n\n| VSTESTCD | VSTEST (Test Name) |\n|----------|-------------------|\n| SYSBP | Systolic Blood Pressure |\n| DIABP | Diastolic Blood Pressure |\n| BMI | Body Mass Index |\n| PULSE | Pulse Rate |\n| RESP | Respiratory Rate |\n| TEMP | Temperature |\n| WEIGHT | Body Weight |\n| HEIGHT | Body Height |\n| MAP | Mean Arterial Pressure |\n| O2SAT | Oxygen Saturation |\n\n**[Source: domains/VS/spec.md — VSTESTCD CDISC Notes]**\n\nThe corresponding **VSTEST** variable (Synonym Qualifier, Required) uses controlled terminology **C67153** (Vital Signs Test Name) and provides the full verbatim name of the test, with a maximum length of 40 characters. **[Source: domains/VS/spec.md — VSTEST]**\n\n### Related Controlled Terminology\n\nThe VS domain references several codelists for its qualifier variables:\n\n| Variable | Codelist Code | Description |\n|----------|--------------|-------------|\n| VSTESTCD | C66741 | Vital Signs Test Code |\n| VSTEST | C67153 | Vital Signs Test Name |\n| VSORRESU / VSSTRESU | C66770 | Units for Vital Signs Results (e.g., beats/min, mmHg, C, kg, cm) |\n| VSPOS | C71148 | Position (e.g., SUPINE, STANDING, SITTING) |\n| VSLOC | C74456 | Anatomical Location (e.g., ARM) |\n| VSLAT | C99073 | Laterality |\n| VSSTAT | C66789 | Not Done |\n| VSLOBXFL / VSBLFL / VSDRVFL / VSCLSIG | C66742 | No Yes Response |\n| EPOCH | C99079 | Epoch |\n\n**[Source: domains/VS/spec.md — Controlled Terminology section]**"
 },
 {
  "id": "q23",
  "category": "single_domain",
  "question": "In the CM (Concomitant Medications) domain, what is the CMTRT variable and what observation class does CM belong to?",
  "expected_facts": [
   "CMTRT",
   "Interventions",
   "Topic",
   "Req"
  ],
  "answer": "Based on the retrieved context, here is the answer to your question:\n\n### CMTRT Variable Definition\n\n**CMTRT** is the **Reported Name of Drug, Med, or Therapy**. It is the Topic variable for the CM domain.\n\n- **Label:** Reported Name of Drug, Med, or Therapy\n- **Type:** Char\n- **Role:** Topic\n- **Core:** Req\n- **Controlled Terms:** (None)\n- **CDISC Notes:** Verbatim medication name that is either preprinted or collected on a CRF. **[Source: domains/CM/spec.md]**\n\nThe assumptions further clarify that CMTRT captures the name of the concomitant medication/therapy and must have a value. It should only include the medication/therapy name and should not include dosage, formulation, or other qualifying information (e.g., \"ASPIRIN 100MG TABLET\" is invalid; it should be split into CMTRT=\"ASPIRIN\", CMDOSE=\"100\", etc.). **[Source: domains/CM/assumptions.md]**\n\n### Observation Class of CM\n\nThe CM (Concomitant/Prior Medications) domain belongs to the **Interventions** observation class. **[Source: domains/CM/assumptions.md]**"
 },
 {
  "id": "q24",
  "category": "single_domain",
  "question": "What is the EX (Exposure) domain used for and what is the Topic variable EXTRT?",
  "expected_facts": [
   "EXTRT",
   "Interventions",
   "protocol-specified"
  ],
  "answer": "## EX (Exposure) Domain — Purpose and Topic Variable\n\n### Purpose of the EX Domain\n\nThe EX (Exposure) domain represents **protocol-specified study treatment administrations** and is used to capture exposure to study treatments including placebo, active comparators, and investigational products. **[Source: domains/EX/assumptions.md — item_1a]**\n\nKey characteristics:\n- EX is **required for all studies that include protocol-specified study treatment** **[Source: domains/EX/assumptions.md — item_1c]**\n- EX is recognized as a **derived dataset** in most cases, where EXDOSU reflects the protocol-specified unit per study treatment. Collected data points (e.g., number of tablets, total volume infused) along with additional inputs (e.g., randomization file, concentration, dosage strength, product accountability) are used to derive records in the EX domain. **[Source: domains/EX/assumptions.md — item_1b]**\n- Treatments that are **not protocol-specified** should be represented in the Concomitant/Prior Medications (CM) or another Interventions domain as appropriate. **[Source: domains/EX/assumptions.md — item_1a]**\n- The EX domain should contain **1 record per constant-dosing interval per subject**. **[Source: domains/EX/assumptions.md — item_1d]**\n- **Collected exposure data points** are to be represented in the **Exposure as Collected (EC)** domain. When the relationship between EC and EX records can be described in RELREC, it should be defined. **[Source: domains/EX/assumptions.md — item_5]**\n\n### Topic Variable: EXTRT\n\n| Attribute | Value |\n|-----------|-------|\n| **Label** | Name of Treatment |\n| **Type** | Char |\n| **Role** | Topic |\n| **Core** | Required |\n| **Controlled Terms** | — (not specified) |\n\n**[Source: VARIABLE_INDEX.md — EX — Exposure (Interventions)]**\n\n**CDISC Notes / Rules:**\n- EXTRT captures the name of the protocol-specified study treatment and is the **topic variable**. It is a **required variable** and must have a value. **[Source: domains/EX/assumptions.md — item_2a]**\n- EXTRT must include **only the treatment name** and must **not include dosage, formulation, or other qualifying information**. For example, \"ASPIRIN 100MG TABLET\" is not a valid value for EXTRT. This example should be expressed as EXTRT = \"ASPIRIN\", EXDOSE = \"100\", EXDOSU = \"mg\", and EXDOSFRM = \"TABLET\". **[Source: domains/EX/assumptions.md — item_2a]**\n- Doses of placebo should be represented by **EXTRT = \"PLACEBO\"** and EXDOSE = \"0\" (indicating 0 mg of active ingredient was taken or administered). **[Source: domains/EX/assumptions.md — item_2b]**\n\n### Domain Classification\n\nEX belongs to the **Interventions** observation class, along with AG, CM, EC, ML, PR, and SU. **[Source: domains/EX/spec.md — Related Domains]**"
 },
 {
  "id": "q25",
  "category": "single_domain",
  "question": "In the MH (Medical History) domain, what is the role of MHTERM and what assumptions guide medical history data collection?",
  "expected_facts": [
   "MHTERM",
   "Topic",
   "Verbatim"
  ],
  "answer": "Based on the provided context, here is the role of MHTERM and the assumptions guiding medical history data collection in the MH domain.\n\n### Role of MHTERM\n\nMHTERM (Reported Term for the Medical History) is the **Topic** variable for the MH domain. It is a **Required** character variable that captures the verbatim term collected for the medical condition or event, or the prespecified term used to collect information about the occurrence of a group of conditions or events. **[Source: domains/MH/spec.md]** **[Source: domains/MH/assumptions.md, item 2a]**\n\n### Assumptions Guiding Medical History Data Collection\n\nThe following assumptions guide medical history data collection in the MH domain:\n\n1.  **MH Description and Coding:**\n    - **MHTERM** is the required topic variable and must always have a value. **[Source: domains/MH/assumptions.md, item 2a]**\n    - **MHMODIFY** is a permissible variable for a modified verbatim term used for coding. **[Source: domains/MH/assumptions.md, item 2b]**\n    - If a standard dictionary is used for coding, **MHDECOD** is populated with the preferred term, and the dictionary name and version are specified in Define-XML. **[Source: domains/MH/assumptions.md, item 2c]**\n    - **MHBODSYS** is the system organ class (SOC) from the coding dictionary. This may differ from the sponsor's predefined categorization (MHCAT). **[Source: domains/MH/assumptions.md, item 2d]**\n    - If a CRF collects data by prespecified body systems and the sponsor also codes terms, **MHDECOD** and **MHBODSYS** come from the dictionary, while **MHCAT** and **MHSCAT** are used for the prespecified body systems. **[Source: domains/MH/assumptions.md, item 2e]**\n\n2.  **Additional Categorization and Grouping:**\n    - **MHCAT** and **MHSCAT** may be populated with the sponsor's predefined categorization of medical history events (e.g., \"General Medical History\", \"Allergy Medical History\"). This categorization should not be a single generic group that is redundant with the domain code. **[Source: domains/MH/assumptions.md, item 3a]**\n    - **MHGRPID** is used to link related records at the subject level within the MH domain (e.g., grouping records for a specific disease), not as a substitute for MHCAT or MHSCAT. **[Source: domains/MH/assumptions.md, item 3b]**\n\n3.  **Prespecified Terms and Occurrence:**\n    - Medical history can be collected via free text or a prespecified list of terms. **[Source: domains/MH/assumptions.md, item 4a]**\n    - **MHPRESP** (Medical History Event Pre-Specified) and **MHOCCUR** (Medical History Occurrence) are used together. A \"Y\" in MHPRESP indicates the term was prespecified. A \"Y\" in MHOCCUR indicates the event occurred, and \"N\" indicates it did not. **[Source: domains/MH/assumptions.md, items 4a, 4b]**\n    - For free-text reports, both MHPRESP and MHOCCUR should be null. These fields can be omitted if all data were collected as free text. **[Source: domains/MH/assumptions.md, item 4c]**\n    - **MHSTAT** (Completion Status) and **MHREASND** (Reason Not Collected) provide information about prespecified questions for which no response was collected. These fields can be omitted if all prespecified conditions had responses in MHOCCUR. **[Source: domains/MH/assumptions.md, item 4d]**\n    - When medical history is collected via free text, do not include a record in the MH dataset to indicate \"no medical history\" for a subject or category. **[Source: domains/MH/assumptions.md, item 4e]**"
 },
 {
  "id": "q26",
  "category": "single_domain",
  "question": "Describe the EG (ECG Test Results) domain structure and the EGTESTCD variable, including its controlled terminology codelist codes.",
  "expected_facts": [
   "EGTESTCD",
   "Findings",
   "C71153"
  ],
  "answer": "# EG (ECG Test Results) Domain Structure and EGTESTCD Variable\n\n## EG Domain Overview\n\nThe EG domain is a **Findings** class domain used to represent electrocardiogram (ECG) test results and interpretations. It captures measurements, interval data, abnormality findings, and overall interpretations from ECG recordings.\n\n### Key Structural Characteristics\n\n1. **Two separate codelist sets** exist for tests based on regular 10-second ECGs versus Holter monitoring [Source: domains/EG/assumptions.md, item_2]:\n   - Regular ECG: EGTESTCD (C71153) / EGTEST (C71152)\n   - Holter monitoring: EGTESTCD (C120523) / EGTEST (C120524)\n\n2. **EGCAT** is used to group observations (e.g., \"MEASUREMENT\", \"FINDING\", \"INTERVAL\") [Source: domains/EG/spec.md — EGCAT]\n\n3. **EGMETHOD** captures the lead placement method (e.g., \"12-LEAD STANDARD\") using codelist C71151 [Source: domains/EG/spec.md — EGMETHOD]\n\n4. **EGPOS** records subject position during ECG (codelist C71148) [Source: domains/EG/spec.md — Controlled Terminology]\n\n5. **EGCLSIG** flags clinically significant findings (codelist C66742, No Yes Response) [Source: domains/EG/spec.md — Controlled Terminology]\n\n6. **EGDRVFL** indicates derived records (e.g., QTc calculations) [Source: domains/EG/examples.md, Example 1]\n\n7. **EGLNKID** can link EG records to procedures in the PR domain (e.g., Holter monitoring) [Source: domains/PR/examples.md, Example 2]\n\n---\n\n## EGTESTCD Variable Definition\n\n| Attribute | Value |\n|-----------|-------|\n| **Order** | 10 |\n| **Label** | ECG Test or Examination Short Name |\n| **Type** | Char |\n| **Controlled Terms** | C71153; C120523 |\n| **Role** | Topic |\n| **Core** | Required |\n| **CDISC Notes** | Short name of the measurement, test, or examination described in EGTEST. Can be used as a column name when converting from vertical to horizontal format. Maximum 8 characters, cannot start with a number, cannot contain characters other than letters, numbers, or underscores. Examples: \"PRAG\", \"QRSAG\". Test codes are in 2 separate codelists: one for regular 10-second ECGs (EGTESTCD) and one for Holter monitoring (HETESTCD). |\n\n[Source: domains/EG/spec.md — EGTESTCD]\n\n---\n\n## Controlled Terminology Codelists\n\n### C71153 — ECG Test Code (Regular 10-second ECGs)\n- **Extensible:** Yes\n- **Purpose:** Standard test codes for conventional 10-second ECG recordings\n- **Examples include:** PRAG (PR Interval, Aggregate), QRSAG (QRS Duration, Aggregate), QTAG (QT Interval, Aggregate), QTCBAG (QTcB Interval, Aggregate), QTCFAG (QTcF Interval, Aggregate), EGHRMN (ECG Mean Heart Rate), INTP (Interpretation), TECHQUAL (Technical Quality)\n- **Associated test names:** C71152 (ECG Test Name)\n\n[Source: domains/EG/spec.md — Controlled Terminology; domains/EG/examples.md, Example 1]\n\n### C120523 — Holter ECG Test Code\n- **Extensible:** Yes\n- **Purpose:** Test codes for continuous Holter monitoring recordings\n- **Examples include:** AVCOND (Atrioventricular Conduction), AXISVOLT (Axis and Voltage), CHYPTENL (Chamber Hypertrophy or Enlargement), EGCOMP (Comparison to a Prior ECG), INTP (Interpretation), IVTIACD (Intraventricular-Intraatrial Conduction), MI (Myocardial Infarction), PACEMAKR (Pacemaker), RHYNOS (Rhythm Not Otherwise Specified), SNRARRY (Sinus Node Rhythms and Arrhythmias), SPRARRY (Supraventricular Arrhythmias), SPRTARRY (Supraventricular Tachyarrhythmias), STSTWUW (ST Segment, T wave, and U wave), TECHQUAL (Technical Quality), VTARRY (Ventricular Arrhythmias), VTTARRY (Ventricular Tachyarrhythmias)\n- **Associated test names:** C120524 (Holter ECG Test Name)\n\n[Source: terminology/core/eg_part3.md — Holter ECG Test Code (C120523)]\n\n---\n\n## Usage Notes\n\n- **EGTESTCD values must be unique within a study** and are paired one-to-one with EGTEST values [Source: domains/EG/spec.md — EGTEST]\n- **When used with QT domain**, sponsors assign EGTESTCD/EGTEST values at the study level for each QT correction method, with clear documentation [Source: domains/EG/assumptions.md, item_10]\n- **Holter monitoring data** can be linked to the PR domain via EGLNKID, with RELREC establishing the one-to-many relationship [Source: domains/PR/examples.md, Example 2]\n- **Associations between ECG abnormality tests and response codelists** are described in the ECG codetable available at the CDISC Controlled Terminology website [Source: domains/EG/assumptions.md, item_2a]"
 },
 {
  "id": "q27",
  "category": "single_domain",
  "question": "What is the IE (Inclusion/Exclusion) domain and what is the role and maximum length of the IETEST variable?",
  "expected_facts": [
   "IETEST",
   "200",
   "Synonym Qualifier"
  ],
  "answer": "## IE Domain Overview\n\nThe **IE (Inclusion/Exclusion Criteria Not Met)** domain is a **Findings** class domain used to collect responses to only those inclusion/exclusion criteria that a subject **did not meet** — not responses to all criteria. For the complete list of all inclusion/exclusion criteria, refer to the **TI (Trial Inclusion/Exclusion Criteria)** domain. **[Source: domains/IE/assumptions.md — item_1]**\n\n---\n\n## IETEST Variable Definition\n\n| Attribute | Value |\n|-----------|-------|\n| **Label** | Inclusion/Exclusion Criterion |\n| **Type** | Char |\n| **Role** | Synonym Qualifier |\n| **Core** | Req |\n| **Controlled Terms** | (none — free text) |\n| **Maximum Length** | **200 characters** |\n\n**[Source: domains/IE/spec.md — IETEST]**\n\n### Key Rules for IETEST\n\n1. **Verbatim description**: IETEST contains the verbatim description of the inclusion or exclusion criterion that was the exception for the subject. **[Source: domains/IE/spec.md — IETEST CDISC Notes]**\n\n2. **200-character limit**: If the criterion text is **200 characters or fewer**, it goes directly in IETEST. If the text exceeds 200 characters, place meaningful/shortened text in IETEST and describe the full text in the study metadata. **[Source: domains/IE/assumptions.md — item_3]**\n\n3. **Relationship to TI domain**: The full text of each criterion is stored in the **TI domain** (Trial Inclusion/Exclusion Criteria), where IETEST also appears but without the 200-character restriction. The prefix \"IE\" is used consistently across both domains. **[Source: domains/TI/spec.md — IETEST; domains/TI/assumptions.md — item_4]**\n\n4. **Not for deviations**: Violated inclusion/exclusion criteria belong in IE, not in DV (Protocol Deviations). However, if violating an inclusion/exclusion criterion after first dose is considered a protocol violation per the protocol, that information goes into DV. **[Source: domains/DV/assumptions.md — item_2]**"
 },
 {
  "id": "q06",
  "category": "cross_domain",
  "question": "What is SUPPQUAL and when should supplemental qualifiers be used instead of adding variables to a domain?",
  "expected_facts": [
   "QNAM",
   "QVAL",
   "non-standard"
  ],
  "answer": "## SUPPQUAL — Supplemental Qualifiers\n\n**SUPPQUAL** (Supplemental Qualifiers for [domain name]) is a special-purpose relationship dataset model used to capture **non-standard variables (NSVs)** — sponsor-defined variables that cannot be accommodated in the standard SDTM domain datasets. **[Source: model/06_relationship_datasets.md §6.2]**\n\n### Structure\n\n- **One record per supplemental qualifier per related parent domain record(s)**\n- Submitted as separate datasets named `SUPP--.xpt` (e.g., `suppae.xpt`, `suppcm.xpt`), with a one-to-one correspondence between a domain dataset and its SUPP-- dataset **[Source: chapters/ch08_relationships.md §8.4.2]**\n- The single `SUPPQUAL` dataset option from SDTMIG v3.1 has been **deprecated** **[Source: chapters/ch08_relationships.md §8.4.2]**\n\n### Key Variables\n\n| Variable | Label | Type | Role | Core |\n|----------|-------|------|------|------|\n| QNAM | Qualifier Variable Name | Char | Topic | Req |\n| QLABEL | Qualifier Variable Label | Char | Synonym Qualifier | Req |\n| QVAL | Data Value | Char | Result Qualifier | Req |\n| QORIG | Origin | Char | Record Qualifier | Req |\n| QEVAL | Evaluator | Char | Record Qualifier | Exp |\n\n**[Source: domains/SUPPQUAL/spec.md; chapters/ch08_relationships.md §8.4.1]**\n\n### Parent Record Linkage\n\nA SUPP-- record relates back to its parent record(s) via: **STUDYID, RDOMAIN, USUBJID, IDVAR, IDVARVAL**. An exception is Demographics (DM), where IDVAR and IDVARVAL are null because STUDYID, RDOMAIN, and USUBJID are sufficient (DM has 1 record per USUBJID). **[Source: domains/SUPPQUAL/assumptions.md]**\n\n---\n\n## When to Use Supplemental Qualifiers vs. Adding Variables\n\n### Core Rule\n\n**The SDTM does not allow the addition of new variables** to standard domain datasets. Therefore, supplemental qualifiers are the mechanism for capturing sponsor-defined data that do not fit into existing SDTM variables. **[Source: domains/SUPPQUAL/assumptions.md; chapters/ch08_relationships.md §8.4]**\n\n### Appropriate Uses\n\n1. **Non-standard qualifiers** — Additional qualifiers for an observation that are not part of the standard SDTM model\n2. **Attributions** — Subjective interpretations or classifications by specific evaluators (e.g., \"clinically significant\" flags from an adjudication committee) **[Source: domains/SUPPQUAL/assumptions.md]**\n3. **Secondary evaluations** — When primary and secondary evaluations exist (e.g., investigator vs. adjudication committee), put primary data in the standard domain and secondary data in SUPP-- **[Source: chapters/ch04_general_assumptions.md §4.5.4]**\n4. **Long text strings** — Text exceeding 200 characters should be split: first 200 characters in the parent domain variable, additional 200-character segments in SUPP-- **[Source: chapters/ch04_general_assumptions.md §4.5.3.2]**\n\n### When NOT to Use Supplemental Qualifiers\n\nThe following data should **not** be submitted as supplemental qualifiers **[Source: chapters/ch08_relationships.md §8.4.4]**:\n\n| Data Type | Correct Placement |\n|-----------|-------------------|\n| Subject-level objective data (e.g., national origin, twin type) | Subject Characteristics (SC) domain |\n| Findings interpretations that should be additional test codes/results | Add as a new record with a distinct --TESTCD (e.g., EGTESTCD = \"INTP\") |\n| Comments related to records | Comments (CO) special-purpose domain |\n| Data not directly related to parent domain records | Separate general observation class domain or special-purpose domain |\n\n### Key Implementation Rules\n\n- **QVAL must never be null** — records with null QVAL must be deleted prior to submission **[Source: domains/SUPPQUAL/assumptions.md]**\n- **QNAM** is limited to 8 characters, cannot start with a number, and can only contain letters, numbers, or underscores **[Source: domains/SUPPQUAL/spec.md]**\n- **QLABEL** is limited to 40 characters **[Source: chapters/ch08_relationships.md §8.4.1]**\n- The combined set of values for STUDYID, RDOMAIN, USUBJID, IDVAR, IDVARVAL, and QNAM must be unique — no duplicate QNAM values for the same parent record **[Source: domains/SUPPQUAL/assumptions.md]**\n- For **objective data**, QEVAL should be null; for **subjective data**, QEVAL should reflect the evaluator's role (e.g., \"ADJUDICATION COMMITTEE\", \"SPONSOR\") **[Source: domains/SUPPQUAL/assumptions.md]**"
 },
 {
  "id": "q07",
  "category": "cross_domain",
  "question": "Which SDTM domains use the EPOCH variable and what is its purpose?",
  "expected_facts": [
   "EPOCH",
   "Timing"
  ],
  "answer": "## EPOCH Variable: Usage Across SDTM Domains\n\n### Purpose of EPOCH\n\nEPOCH is a **Timing** variable (Role: Timing) that identifies the study epoch associated with an observation. It is a **Permissible** (Core: Perm) character variable controlled by terminology codelist **C99079**, with examples including \"SCREENING\", \"TREATMENT\", and \"FOLLOW-UP\" **[Source: domains/SR/spec.md]**.\n\nThe general guidance for populating EPOCH is:\n- **Findings class domains**: EPOCH should be based on the `--DTC` variable (date/time of the test or specimen collection) **[Source: chapters/ch04_general_assumptions.md §4.1.3.1]**\n- **Interventions or Events class domains**: EPOCH should be based on the `--STDTC` variable (start date/time of the intervention or event) **[Source: chapters/ch04_general_assumptions.md §4.1.3.1]**\n- EPOCH values must be distinct for different epochs (e.g., in a crossover trial with 3 treatment epochs, each must have a unique name, not all called \"TREATMENT\") **[Source: domains/TA/assumptions.md item 12]**\n- EPOCH should be null for observations that occurred before the subject's participation in the study (including screening, which occurs before RFSTDTC) **[Source: chapters/ch04_general_assumptions.md §4.1.3.1]**\n\n### Domains That Use EPOCH\n\nBased on the knowledge base, EPOCH appears in the following domains (this is not exhaustive — EPOCH is a permissible timing variable that can be added to any domain based on the 3 general observation classes):\n\n| Domain | Class | Source |\n|--------|-------|--------|\n| **SR** (Skin Response) | Findings | [domains/SR/spec.md] |\n| **CP** (Cell Phenotype Findings) | Findings | [domains/CP/spec.md] |\n| **FA** (Findings About Events or Interventions) | Findings | [domains/FA/spec.md] |\n| **PP** (Pharmacokinetics Parameters) | Findings | [domains/PP/spec.md] |\n| **PC** (Pharmacokinetics Concentrations) | Findings | [domains/PC/spec.md] |\n| **EC** (Exposure as Collected) | Interventions | [VARIABLE_INDEX.md — EC section] |\n\n### General Rule for Adding EPOCH\n\nAdditional Timing variables (including EPOCH) can be added as needed to any standard domain model based on the 3 general observation classes (Interventions, Events, Findings), with the following exceptions **[Source: chapters/ch04_general_assumptions.md §4.1.3]**:\n- Timing variables **cannot** be added to SUPPQUAL datasets\n- Timing variables **cannot** be added to RELREC datasets\n- Timing variables can be added to special-purpose domains **only where specified** in the SDTMIG domain model assumptions\n\n### Controlled Terminology\n\nEPOCH uses codelist **C99079** (Epoch), which includes values such as \"SCREENING\", \"TREATMENT\", \"FOLLOW-UP\", and other study-specific epoch names **[Source: domains/SR/spec.md; domains/CP/spec.md; domains/FA/spec.md; domains/PP/spec.md; domains/PC/spec.md]**."
 },
 {
  "id": "q08",
  "category": "cross_domain",
  "question": "How does USUBJID serve as a linking key across SDTM domains?",
  "expected_facts": [
   "USUBJID",
   "Identifier",
   "unique"
  ],
  "answer": "Based on the provided context, **USUBJID** serves as a fundamental linking key across SDTM domains by acting as a **unique identifier** for each subject, enabling the association of records from different domains that belong to the same individual.\n\nHere is a detailed breakdown of its role:\n\n### 1. Universal Identifier Role\nUSUBJID is defined as an **Identifier** variable with a **Core** of **Required (Req)** in virtually all subject-level domains. Its purpose is to uniquely identify a subject across all studies and all applications.\n\n- **Definition:** \"Identifier used to uniquely identify a subject across all studies for all applications or submissions involving the product.\" **[Source: domains/DM/spec.md]**\n- **Presence:** It is a required variable in core domains like Demographics (DM), Adverse Events (AE), Comments (CO), Pharmacokinetics Parameters (PP), and many others. **[Source: domains/AE/spec.md, domains/CO/spec.md, domains/PP/spec.md]**\n\n### 2. Key in Dataset Metadata and Natural Keys\nUSUBJID is a critical component of the **natural key** for most domain datasets, which is how records are uniquely identified and linked.\n\n- **Dataset Keys:** In the dataset-level metadata, USUBJID is listed as a key variable for nearly all datasets. For example, the Demographics (DM) dataset has keys `STUDYID, USUBJID`. **[Source: chapters/ch03_submitting_data.md]**\n- **Linking Mechanism:** Because USUBJID is a common key across all subject-level datasets, it is the primary variable used to merge or join records from different domains (e.g., joining AE records with DM records to get subject demographics).\n\n### 3. Role in Relationship Datasets\nUSUBJID is used in relationship datasets to link records, but its usage depends on the type of relationship.\n\n- **Subject-to-Subject Relationships (RELSUB):** USUBJID is used directly to identify the subject. In the RELSUB domain, either `USUBJID` or `POOLID` must be populated. **[Source: domains/RELSUB/spec.md]**\n- **Dataset-to-Dataset Relationships (RELREC):** For relationships between records in different datasets (e.g., linking a Tumor Identification record to a Tumor Results record), USUBJID is **null** in the RELREC dataset. This is because the relationship is defined at the dataset level, not the subject level. The linking is done via other ID variables like `--LNKID`. **[Source: chapters/ch08_relationships.md]**\n\n### 4. Linking to Supplemental Qualifiers (SUPPQUAL)\nUSUBJID is a required identifier in the SUPPQUAL domain, where it is used to identify the parent record that the supplemental qualifier belongs to. The value of USUBJID in SUPPQUAL must match the USUBJID in the parent record. **[Source: domains/SUPPQUAL/spec.md]**\n\n### 5. Linking to Associated Persons (AP)\nIn the context of Associated Persons data, USUBJID is not used directly. Instead, the variable **RSUBJID** (Related Subject or Pool Identifier) is used to link an associated person to a study subject. RSUBJID is populated with the USUBJID of the related subject. **[Source: model/04_associated_persons.md]**\n\n### Summary\nUSUBJID is the **primary, required, cross-domain key** that identifies a single subject. It is used to:\n- **Directly link** records from any two subject-level datasets (e.g., DM and AE).\n- **Form the natural key** for most domain datasets.\n- **Identify parent records** in the SUPPQUAL domain.\n- **Serve as the value** for the `RSUBJID` variable in Associated Persons data to link back to a subject."
 },
 {
  "id": "q09",
  "category": "cross_domain",
  "question": "How are adverse events linked to concomitant medications using RELREC?",
  "expected_facts": [
   "RELREC",
   "IDVAR",
   "IDVARVAL"
  ],
  "answer": "## Linking Adverse Events to Concomitant Medications via RELREC\n\nAdverse events (AE) are linked to concomitant medications (CM) using the **RELREC** (Related Records) special-purpose dataset. This mechanism is explicitly described in the AE assumptions and the RELREC specification.\n\n### Mechanism\n\n1. **When to link**: When a non-study treatment (concomitant medication) is given because of the occurrence of an adverse event, the AE record and the CM record(s) should be linked using RELREC **[Source: domains/AE/assumptions.md — item_6a]**.\n\n2. **How it works**: A relationship is defined by adding a record to RELREC for each record to be related, assigning a unique character identifier value (RELID) that is identical for all related records within a USUBJID **[Source: domains/RELREC/assumptions.md — overview]**.\n\n3. **Key variables in RELREC**:\n   - **STUDYID** — Study identifier\n   - **RDOMAIN** — Domain code of the record in the relationship (e.g., \"AE\" or \"CM\")\n   - **USUBJID** — Subject identifier\n   - **IDVAR** — Variable used to identify the record (typically `--SEQ`, e.g., `AESEQ` or `CMSEQ`)\n   - **IDVARVAL** — Value of the variable in IDVAR\n   - **RELTYPE** — Type of relationship (optional)\n   - **RELID** — Relationship Identifier (Required, Char, Role: Record Qualifier) — Unique value within USUBJID that identifies the relationship **[Source: domains/RELREC/spec.md — RELID]**\n\n### Example\n\nFrom the RELREC examples, a single adverse event (AESEQ=5) related to two concomitant medications (CMSEQ=11 and CMSEQ=12) would be represented as:\n\n| STUDYID | RDOMAIN | USUBJID | IDVAR | IDVARVAL | RELTYPE | RELID |\n|---------|---------|---------|-------|----------|---------|-------|\n| EFC1234 | AE | 123456 | AESEQ | 5 | | 1 |\n| EFC1234 | CM | 123456 | CMSEQ | 11 | | 1 |\n| EFC1234 | CM | 123456 | CMSEQ | 12 | | 1 |\n\n**[Source: domains/RELREC/examples.md — Example 1]**\n\n### Efficiency with --GRPID\n\nIf the concomitant medications are already grouped in the CM domain using `CMGRPID` (e.g., \"COMBO1\"), the relationship can be represented with fewer RELREC records by using `CMGRPID` as the IDVAR instead of `CMSEQ`:\n\n| STUDYID | RDOMAIN | USUBJID | IDVAR | IDVARVAL | RELTYPE | RELID |\n|---------|---------|---------|-------|----------|---------|-------|\n| EFC1234 | AE | 123456 | AESEQ | 5 | | 1 |\n| EFC1234 | CM | 123456 | CMGRPID | COMBO1 | | 1 |\n\n**[Source: domains/RELREC/examples.md — Example 3]**\n\n### Related Domains Cross-Reference\n\nThe AE domain specification explicitly lists CM as a related domain for \"concomitant medications linked via RELREC\" **[Source: domains/AE/spec.md — Related Domains]**, and the CM domain specification similarly references AE for \"adverse events treated by concomitant medication\" **[Source: domains/CM/spec.md — Related Domains]**."
 },
 {
  "id": "q10",
  "category": "cross_domain",
  "question": "In oncology studies, how are the TR (Tumor/Lesion Results) domain and RS (Disease Response) domain linked together, and which specific identifier variables are used for each linkage direction?",
  "expected_facts": [
   "TRLNKID",
   "TRLNKGRP"
  ],
  "answer": "## TR ↔ RS Domain Linkage in Oncology Studies\n\nThe TR (Tumor/Lesion Results) and RS (Disease Response) domains are linked using **RELREC relationship records**, with the **`--LNKGRP`** variable serving as the linking identifier on both sides.\n\n---\n\n### Linkage Mechanism\n\nThe relationship between TR and RS is established through a **dataset-to-dataset RELREC relationship**, using the `--LNKGRP` variable as the grouping identifier. This approach was chosen because the standard ID variables (`--GRPID`, `--REFID`, `--SPID`) may be used for other purposes per SDTM conventions. **[Source: domains/TR/assumptions.md — item_2]**\n\n---\n\n### Identifier Variables Used\n\n| Direction | Domain | Variable Used | Purpose |\n|-----------|--------|---------------|---------|\n| TR → RS | TR | **TRLNKGRP** | Groups TR records that contribute to a specific response assessment in RS |\n| RS → TR | RS | **RSLNKGRP** | Identifies which RS record is derived from a set of TR measurements |\n\n**[Source: domains/TR/assumptions.md — item_2]**  \n**[Source: domains/RS/assumptions.md — item_4]**\n\n---\n\n### How the Linkage Works\n\n1. **TRLNKGRP** in the TR domain provides a unique code for each response and its associated tumor/lesion measurements/assessments. **[Source: domains/TR/assumptions.md — item_2]**\n\n2. **RSLNKGRP** in the RS domain carries the corresponding value to link back to the contributing TR records. **[Source: domains/RS/assumptions.md — item_4]**\n\n3. A **RELREC** dataset record is created to formally describe the relationship, typically as a dataset-to-dataset link. **[Source: domains/TR/assumptions.md — item_2]**\n\n---\n\n### Example from RS Domain\n\nIn the RS examples, RSLNKGRP values like `\"A2\"` and `\"A3\"` are used to link overall response records back to the contributing TR assessments:\n\n| Row | RSLNKGRP | RSTESTCD | RSTEST | RSSTRESC | VISIT |\n|-----|----------|----------|--------|----------|-------|\n| 3 | **A2** | OVRLRESP | Overall Response | PR | WEEK 6 |\n| 7 | **A3** | OVRLRESP | Overall Response | PD | WEEK 12 |\n\n**[Source: domains/RS/examples.md — Example 1]**\n\n---\n\n### Important Distinction: TU ↔ TR vs. TR ↔ RS\n\nIt is critical to note that **two different linking variables** are used for the two different relationships:\n\n| Relationship | Linking Variable | Mechanism |\n|-------------|-----------------|-----------|\n| **TU ↔ TR** (Identification → Results) | **TULNKID** / **TRLNKID** | Links each tumor/lesion identification record to its corresponding measurement records |\n| **TR ↔ RS** (Results → Response) | **TRLNKGRP** / **RSLNKGRP** | Groups multiple TR measurement records that collectively inform a single response assessment in RS |\n\n**[Source: domains/TU/assumptions.md — item_2]**  \n**[Source: domains/TR/assumptions.md — item_1]**  \n**[Source: domains/TR/assumptions.md — item_2]**\n\n---\n\n### Summary\n\n- **Linkage direction**: TR → RS (TR records contribute to RS response assessments)\n- **Linking variable**: `--LNKGRP` (TRLNKGRP in TR, RSLNKGRP in RS)\n- **Formal mechanism**: RELREC dataset-to-dataset relationship\n- **Scope**: A single RS record (e.g., \"Overall Response\") may be informed by multiple TR records (e.g., target lesion measurements, non-target lesion assessments, new lesion status)"
 },
 {
  "id": "q28",
  "category": "cross_domain",
  "question": "What is the FA (Findings About Events or Interventions) domain and how does it link to parent domains like AE or CM using FAOBJ?",
  "expected_facts": [
   "Findings About",
   "FAOBJ",
   "FATESTCD"
  ],
  "answer": "## FA (Findings About Events or Interventions) Domain\n\nThe FA domain is a **Findings About** subtype of the Findings Observation Class, used to record findings about observations in the Interventions or Events classes. It represents data that describe properties, measurements, or assessments of events or interventions, rather than the events/interventions themselves. **[Source: model/02_observation_classes.md]**\n\n### Key Characteristics\n\n- **Structure:** One record per finding\n- **Class:** Findings About (subtype of Findings)\n- **Unique Variable:** `--OBJ` (FAOBJ) — Object of the Observation **[Source: model/02_observation_classes.md]**\n\n### When to Use FA (Three Criteria)\n\nPer **Section 6.4.1**, FA should be used when:\n\n1. **Different timing from the event/intervention as a whole** — e.g., severity assessed at each visit for an ongoing AE (snapshots/slices of the event)\n2. **Requires more than 1 variable for representation** — preventing inclusion as a supplemental qualifier\n3. **Indicates occurrence of pre-specified AEs** — solicited occurrence data at each visit\n\n**[Source: domains/FA/assumptions.md]**\n\n---\n\n## FAOBJ Variable Definition\n\n| Attribute | Value |\n|-----------|-------|\n| **Label** | Object of the Observation |\n| **Type** | Char |\n| **Role** | Record Qualifier |\n| **Core** | Req |\n| **Controlled Terms** | — (no controlled terminology) |\n\n**[Source: domains/FA/spec.md]**\n\n**CDISC Notes:** FAOBJ describes the object or focal point of the findings observation represented by `--TEST`. Examples include: the term (e.g., \"Acne\") describing a clinical sign or symptom being measured by a severity test; an event (e.g., \"VOMIT\") where the volume of vomit is being measured by a VOLUME test. **[Source: domains/FA/spec.md]**\n\n---\n\n## How FAOBJ Links to Parent Domains (AE, CM, etc.)\n\nFAOBJ is the **linking mechanism** between FA records and their parent event/intervention records. The value in FAOBJ identifies which event or intervention the finding is about.\n\n### Linking to AE (Adverse Events)\n\nFAOBJ is populated with the **AEDECOD** value from the associated AE record:\n\n- **Example 6 (Severity over time):** FAOBJ = \"NAUSEA\" (AEDECOD value) for severity assessments of the AE \"Morning queasiness\" at multiple visits. The AE record has AETERM=\"Morning queasiness\", AEDECOD=\"Nausea\". **[Source: domains/FA/examples.md]**\n\n- **Example 4 (Prespecified AEs):** FAOBJ = \"Headache\", \"Respiratory Infection\", \"Nausea\" — these are the AEDECOD values from the AE domain. When FAORRES=\"Y\", the corresponding AE record exists with AEPRESP=\"Y\". **[Source: domains/FA/examples.md]**\n\n### Linking to CM (Concomitant Medications)\n\nFA can also represent findings about concomitant medications, with FAOBJ populated with the medication name (CMTRT or CMDECOD). **[Source: domains/FA/spec.md — Related Domains]**\n\n### Linking to Other Parent Domains\n\nFA can link to multiple parent domains via FAOBJ:\n\n| Parent Domain | FAOBJ Value Source |\n|--------------|-------------------|\n| AE | AEDECOD |\n| CM | CMTRT / CMDECOD |\n| PR | PRTRT / PRDECOD |\n| EX | EXTRT |\n| EC | ECTRT |\n| ML | MLTRT |\n| SU | SUTRT |\n\n**[Source: domains/FA/spec.md — Related Domains]**\n\n---\n\n## Relationship Mechanism\n\nThe FA domain does **not** require RELREC to link to parent domains. The linkage is **implicit** through FAOBJ (and optionally FASPID matching AESPID). As noted in Example 4:\n\n> \"No relationship was collected to link the FAAE record for the occurrence indicator test with the AE entries, so no RELREC was created.\"\n\n**[Source: domains/FA/examples.md]**\n\nHowever, RELREC **can** be used when explicit record-level relationships are needed (e.g., linking specific FA severity assessments to specific AE records). **[Source: domains/AE/spec.md — Related Domains]**\n\n---\n\n## Key Rules for FAOBJ Usage\n\n1. **Both FATESTCD and FAOBJ are required** for every record — FATESTCD describes the measurement/evaluation, FAOBJ describes the event or intervention being measured. **[Source: model/02_observation_classes.md]**\n\n2. **FAOBJ should not be populated with --BODSYS, --MODIFY, --SEV, or --TOXGR** values (these are qualifiers, not objects). **[Source: domains/FA/assumptions.md]**\n\n3. **When FA represents findings about a part of an event** (different timing), FATESTCD/FATEST should use the same names as the corresponding variable names/labels in the parent domain (e.g., FATESTCD=\"SEV\", FATEST=\"Severity/Intensity\"). **[Source: domains/FA/assumptions.md]**\n\n4. **FAOBJ values typically come from coded terms** (e.g., AEDECOD) rather than verbatim text (AETERM). **[Source: domains/FA/examples.md — Example 6]**"
 },
 {
  "id": "q29",
  "category": "cross_domain",
  "question": "How do the four Trial Design domains TA (Trial Arms), TE (Trial Elements), TV (Trial Visits), and TI (Trial Inclusion/Exclusion) work together to define a study design?",
  "expected_facts": [
   "TA",
   "TE",
   "TV",
   "TI"
  ],
  "answer": "# How TA, TE, TV, and TI Work Together to Define a Study Design\n\nThe four Trial Design domains form a **hierarchical, interconnected model** that describes a clinical trial's planned conduct from different perspectives. Here's how they relate:\n\n## 1. TE (Trial Elements) — The Building Blocks\n\nTE defines the **fundamental time intervals** (elements) that serve a purpose in the trial. Each element appears **once** in TE, regardless of how many times it's used across arms.\n\n**Key variables:** ETCD (Element Code), ELEMENT (Description), TESTRL (Start Rule), TEENRL (End Rule), TEDUR (Planned Duration)\n\n> *\"An element is a building block for creating study cells, and an arm is composed of study cells.\"* **[Source: domains/TE/assumptions.md]**\n\n> *\"The Trial Elements (TE) dataset contains the definitions of the elements that appear in the Trial Arms (TA) dataset. An element may appear multiple times in the TA table... However, an element will appear only once in the TE table.\"* **[Source: domains/TE/assumptions.md]**\n\n## 2. TA (Trial Arms) — The Sequence of Elements per Arm\n\nTA describes **each planned arm** as an **ordered sequence of elements**. It has one record per element per arm, showing the path through the trial.\n\n**Key variables:** ARMCD/ARM (Arm), TAETORD (Order within Arm), ETCD/ELEMENT (referencing TE), TABRANCH (Branch Rule), TATRANS (Transition Rule), EPOCH\n\n> *\"An arm is a planned path through the trial. This path covers the entire time of the trial.\"* **[Source: domains/TA/assumptions.md]**\n\n> *\"Each planned path through the trial (i.e., each arm) is divided into pieces, 1 for each epoch. Each of these pieces is called a study cell.\"* **[Source: domains/TA/assumptions.md]**\n\n**Relationship to TE:** TA references TE via `ETCD`. The same element (e.g., \"Screen\") can appear in multiple arms and multiple positions within an arm.\n\n## 3. TV (Trial Visits) — The Data Collection Schedule\n\nTV defines the **planned visits** at which data are collected, with rules for when each visit starts and ends relative to epochs or elements.\n\n**Key variables:** VISITNUM (Visit Number), TVSTRL (Start Rule), TVENRL (End Rule)\n\n> *\"Visits 2 and 3 span epoch transitions... the transition event that marks the beginning of the run-in epoch occurs during visit 2.\"* **[Source: domains/TV/examples.md]**\n\n**Relationship to TA/TE:** TV visits reference the epochs defined in TA. When epochs span multiple elements, visits may need to reference elements rather than epochs:\n> *\"When an arm includes repetitions of the same element, it may be necessary to use TAETORD as well as an element name to specify when a visit is to occur.\"* **[Source: domains/TV/examples.md]**\n\n## 4. TI (Trial Inclusion/Exclusion) — Subject Eligibility Criteria\n\nTI defines **all inclusion and exclusion criteria** for the trial — the rules determining which subjects can participate.\n\n**Key variables:** IETESTCD/IETEST (Criterion), IECAT (Category), TIRL (Rule — intended for future machine-executable representation)\n\n> *\"TI contains all the inclusion and exclusion criteria for the trial, and thus provides information that may not be present in the subject-level data on inclusion and exclusion criteria.\"* **[Source: domains/TI/assumptions.md]**\n\n**Relationship to other domains:** TI defines eligibility that determines which subjects enter the first element (e.g., \"Screen\") defined in TE and sequenced in TA. The IE domain (subject-level) records only criteria that subjects **failed** to meet.\n\n## How They Interconnect — A Complete Example\n\nUsing **TA Example Trial 1** (3-arm parallel design):\n\n| Domain | What It Provides |\n|--------|-----------------|\n| **TE** | 5 unique elements: Screen, Run-In, Placebo, Drug A, Drug B |\n| **TA** | 3 arms, each with sequence: Screen → Run-In → (one of Placebo/Drug A/Drug B), with EPOCH assignments (Screening, Run-In, Treatment) and branch rules at randomization |\n| **TV** | 5 visits (V1-V5) with start/end rules referencing epoch transitions (e.g., V2 spans Screen→Run-In, V3 spans Run-In→Treatment) |\n| **TI** | All inclusion/exclusion criteria that determine who enters the Screen element |\n\n> *\"The Trial Design Model provides a standardized way to describe those aspects of the planned conduct of a clinical trial shown in the study design diagrams.\"* **[Source: domains/TA/assumptions.md]**\n\n## Summary of Relationships\n\n```\nTE (Elements) ──referenced by──→ TA (Arms: element sequences per arm)\nTA (Epochs) ──referenced by──→ TV (Visits: timing rules relative to epochs)\nTI (Criteria) ──independent but──→ determines entry into TE's first element\n```\n\nAll four domains share `STUDYID` and belong to the **Trial Design class** along with TD, TM, and TS. **[Source: domains/TA/spec.md — Related Domains]**"
 },
 {
  "id": "q30",
  "category": "cross_domain",
  "question": "What is the CO (Comments) domain and how does it reference records in other SDTM domains? Describe the RDOMAIN and IDVAR mechanism.",
  "expected_facts": [
   "COVAL",
   "RDOMAIN",
   "IDVAR"
  ],
  "answer": "## CO (Comments) Domain Overview\n\nThe Comments (CO) domain is a **special-purpose domain** used to capture unstructured free-text comments that are not part of normal domain data. Comments are normally supplied by a principal investigator but may also come from other sources such as central reviewers. **[Source: model/03_special_purpose_domains.md]**\n\n### Structure\n- **One record per comment per subject** (or per study)\n- Contains 15 variables total **[Source: model/03_special_purpose_domains.md]**\n\n### Key Variables\n\n| Variable | Label | Type | Role | Core |\n|----------|-------|------|------|------|\n| COSEQ | Sequence Number | Num | Identifier | Req |\n| COREF | Comment Reference | Char | Record Qualifier | Perm |\n| COVAL | Comment | Char | Topic | Req |\n| COEVAL | Evaluator | Char | Record Qualifier | Perm |\n| COEVALID | Evaluator Identifier | Char | Record Qualifier | Perm |\n| CODTC | Date/Time of Comment | Char | Timing | Perm |\n| CODY | Study Day of Comment | Num | Timing | Perm |\n\n**[Source: VARIABLE_INDEX.md — CO]**\n\n---\n\n## RDOMAIN and IDVAR Mechanism\n\nThe CO domain uses the same key variable structure as Supplemental Qualifiers (SUPP--) to identify parent records. The mechanism involves three variables: **RDOMAIN**, **IDVAR**, and **IDVARVAL**. **[Source: chapters/ch08_relationships.md §8.5]**\n\n### Three Levels of Association\n\nThe CO dataset accommodates **3 sources of comments**, determined by how RDOMAIN, IDVAR, and IDVARVAL are populated: **[Source: domains/CO/assumptions.md item_3]**\n\n#### 1. Comments Unrelated to Any Specific Domain or Record\n- **RDOMAIN** = null\n- **IDVAR** = null\n- **IDVARVAL** = null\n- **CODTC** should be populated if captured\n- *Example:* A comment collected on a separate comments page with no domain association\n\n#### 2. Comments Related to a Domain but Not to Specific Records\n- **RDOMAIN** = DOMAIN code of the parent domain (e.g., \"PE\", \"AE\")\n- **IDVAR** = null\n- **IDVARVAL** = null\n- **CODTC** should be populated if captured\n- *Example:* A comment collected at the bottom of the PE page for Visit 7, without indication of specific records\n\n#### 3. Comments Related to Specific Parent Record(s)\n- **RDOMAIN** = DOMAIN code of the parent record(s)\n- **IDVAR** = key variable name of the parent record (e.g., \"AESEQ\", \"EXGRPID\", \"VSGRPID\")\n- **IDVARVAL** = value of the key variable\n- **CODTC** should be **null** (timing is inherited from the parent record)\n- *Example:* A comment related to AE record with AESEQ=7\n\n**[Source: domains/CO/assumptions.md item_3; domains/CO/examples.md Example 1]**\n\n### Additional Relationship Variables\n\n- **COREF** (Comment Reference): Can store additional information about the relationship (e.g., CRF page number or name) that cannot be represented using RDOMAIN, IDVAR, and IDVARVAL alone. **[Source: chapters/ch08_relationships.md §8.5]**\n- **Timing variables** (e.g., VISITNUM, VISIT) may be added to the CO domain to further qualify the relationship. **[Source: chapters/ch08_relationships.md §8.5]**\n\n### Grouping with --GRPID\n\nAs with SUPP-- and RELREC, grouping variables (e.g., --GRPID) can be used as the value in IDVAR to identify comments related to multiple domain records. However, a single comment can only be related to records in **one domain** (RDOMAIN can have only one value). If a comment relates to records in multiple domains, the comment may need to be repeated in CO. **[Source: chapters/ch08_relationships.md §8.5]**\n\n### Long Comments\n\nWhen comment text exceeds 200 characters, the first 200 characters go in COVAL, the next 200 in COVAL1, and additional text in COVALn as needed. **[Source: domains/CO/assumptions.md item_4]**\n\n---\n\n## Summary of the Mechanism\n\n| Association Level | RDOMAIN | IDVAR | IDVARVAL | CODTC |\n|-------------------|---------|-------|----------|-------|\n| Subject-level (no domain) | null | null | null | Populated |\n| Domain-level (no specific record) | Domain code | null | null | Populated |\n| Record-level (specific record) | Domain code | Key variable name | Key variable value | null (inherited) |\n\n**[Source: domains/CO/assumptions.md item_3; domains/CO/examples.md Example 1]**"
 },
 {
  "id": "q31",
  "category": "cross_domain",
  "question": "How are the EC (Exposure as Collected) and EX (Exposure) domains different in purpose, and when should each be used?",
  "expected_facts": [
   "collected",
   "EX",
   "EC"
  ],
  "answer": "## EC vs EX: Purpose and Usage\n\n### Core Distinction\n\n**EC (Exposure as Collected)** represents protocol-specified study treatment administrations **as collected** — the raw, observed data in the units actually measured (e.g., tablets, mL). **[Source: domains/EC/assumptions.md -- item_1]**\n\n**EX (Exposure)** represents study treatment administrations in the **protocol-specified unit** (e.g., mg, mg/kg) — typically a **derived** dataset. **[Source: domains/EX/assumptions.md -- item_1b]**\n\n---\n\n### When to Use Each Domain\n\n| Scenario | Use EC | Use EX |\n|----------|--------|--------|\n| Collected in tablets, protocol unit is mg | ✅ EC shows tablets | ✅ EX shows mg |\n| Collected in mL, protocol unit is mg/kg | ✅ EC shows mL | ✅ EX shows mg/kg |\n| Protocol-specified study treatment | ✅ | ✅ (required) |\n| Non-protocol treatments (concomitant meds) | ❌ | ❌ (use CM) |\n| Product accountability (dispensed/returned) | ❌ (use DA) | ❌ (use DA) |\n| Procedure agents (e.g., glucose tolerance test) | ❌ | ❌ (use AG) |\n| Nutritional items | ❌ | ❌ (use ML) |\n| Substance use (e.g., caffeine, alcohol) | ❌ | ❌ (use SU) |\n\n**[Source: domains/EC/assumptions.md -- item_1a; domains/ML/assumptions.md -- item_1; domains/AG/assumptions.md -- item_1a]**\n\n---\n\n### Key Rules\n\n1. **EC is optional** if the entire EC dataset is an exact duplicate of the entire EX dataset. **[Source: domains/EC/assumptions.md -- item_1b]**\n\n2. **EX is required** for all studies that include protocol-specified study treatment. **[Source: domains/EX/assumptions.md -- item_1c]**\n\n3. **EX is derived** from EC data plus additional inputs (randomization file, concentration, dosage strength, product accountability). Derivation methods must be described in Define-XML. **[Source: domains/EX/assumptions.md -- item_1b, item_5]**\n\n4. **RELREC** should be used when the relationship between EC and EX records can be described. **[Source: domains/EC/assumptions.md -- item_6; domains/EX/assumptions.md -- item_5]**\n\n5. **EX contains 1 record per constant-dosing interval per subject** (sponsor-defined). EC may have multiple records per interval (e.g., separate records for each bottle or time-point). **[Source: domains/EX/assumptions.md -- item_1d]**\n\n6. **ECVAMT/ECVAMTU** are used in EC for volume; these variables are **not used in EX** when EC is implemented alongside EX. **[Source: domains/EX/assumptions.md -- item_6c]**\n\n---\n\n### Example Workflow\n\n**Collected data (EC):** Subject took 1 tablet from Bottle A and 1 tablet from Bottle B daily for 7 days. EC shows `ECDOSE = 1`, `ECDOSU = \"TABLET\"` per bottle.\n\n**Derived data (EX):** After unmasking, Bottle A = 10 mg/tablet, Bottle B = 10 mg/tablet. EX shows `EXDOSE = 20`, `EXDOSU = \"mg\"` (total daily dose). **[Source: domains/EX/examples.md -- Example 3]**\n\n---\n\n### Related Domains\n\nBoth EC and EX belong to the **Interventions** class, along with AG, CM, ML, PR, and SU. **[Source: domains/EC/spec.md -- Related Domains; domains/EX/spec.md -- Related Domains]**"
 },
 {
  "id": "q32",
  "category": "cross_domain",
  "question": "How is VISIT and VISITNUM used consistently across observation-class domains, and what role does the SV (Subject Visits) domain play in tracking actual visit dates?",
  "expected_facts": [
   "VISIT",
   "VISITNUM",
   "SV"
  ],
  "answer": "## VISIT and VISITNUM Usage Across Observation-Class Domains\n\n### VISITNUM — Core Definition\n\n**VISITNUM** is a **Timing Role** variable across all observation-class domains (Interventions, Events, Findings), with the following consistent definition:\n\n- **Label:** Visit Number\n- **Type:** Num\n- **Role:** Timing\n- **Core:** Exp (Expected) in most domains\n- **CDISC Notes:** \"Clinical encounter number. Numeric version of VISIT, used for sorting.\"\n\n**[Source: domains/SV/spec.md — VISITNUM; domains/FA/spec.md — VISITNUM; domains/AG/spec.md — VISITNUM; domains/PE/spec.md — VISITNUM]**\n\n### VISIT — Core Definition\n\n**VISIT** is a **Timing Role** variable:\n\n- **Label:** Visit Name\n- **Type:** Char\n- **Role:** Timing\n- **Core:** Perm (Permissible) in most domains\n- **CDISC Notes:** \"Protocol-defined description of clinical encounter. May be used in addition to VISITNUM and/or VISITDY.\"\n\n**[Source: domains/AG/spec.md — VISIT]**\n\n### Consistency Rules Across Domains\n\n1. **One-to-one relationship**: There must be a **one-to-one relationship** between VISIT and VISITNUM across all domains. **[Source: chapters/ch04_general_assumptions.md §4.4.5]**\n\n2. **Planned visits**: For planned visits, values of VISIT, VISITNUM, and VISITDY must be those defined in the Trial Visits (TV) dataset. **[Source: chapters/ch04_general_assumptions.md §4.4.5]**\n\n3. **Unplanned visits**: Any values of VISITNUM that appear in subject-level datasets that are not in the TV dataset are assumed to correspond to unplanned visits. **[Source: domains/TV/assumptions.md — item_6]**\n\n4. **VISITDY restriction**: VISITDY must **not** be populated for unplanned visits; VISITDY is, by definition, the planned study day of visit. The actual study day of an unplanned visit belongs in a `--DY` variable. **[Source: chapters/ch04_general_assumptions.md §4.4.5]**\n\n5. **Sorting**: VISITNUM is numeric and used for sorting; values should wherever possible match the planned chronological order of visits. **[Source: chapters/ch04_general_assumptions.md §4.4.5]**\n\n---\n\n## Role of the SV (Subject Visits) Domain\n\n### Structure\n\n**SV** is a **Special Purpose** domain with the structure: **One record per actual or planned visit per subject**. It contains **16 variables**. **[Source: model/03_special_purpose_domains.md — Subject Visits (SV)]**\n\n### Key Variables in SV\n\n| Variable | Label | Type | Role | Core |\n|----------|-------|------|------|------|\n| VISITNUM | Visit Number | Num | Topic | Req |\n| VISIT | Visit Name | Char | Synonym Qualifier (VISITNUM) | — |\n| SVPRESP | Pre-specified | Char | Variable Qualifier | Exp |\n| SVOCCUR | Occurrence | Char | Record Qualifier | Exp |\n| SVSTDTC | Start Date/Time of Observation | Char | Timing | Exp |\n| SVENDTC | End Date/Time of Observation | Char | Timing | Exp |\n| SVSTDY | Study Day of Start of Observation | Num | Timing | Perm |\n| SVENDY | Study Day of End of Observation | Num | Timing | Perm |\n| SVUPDES | Description of Unplanned Visit | Char | Record Qualifier | Perm |\n| SVEPCHGI | Epi/Pandemic Related Change Indicator | Char | Record Qualifier | Perm |\n\n**[Source: VARIABLE_INDEX.md — SV; model/03_special_purpose_domains.md — Subject Visits (SV)]**\n\n### How SV Tracks Actual Visit Dates\n\n1. **Actual vs. Planned**: The SV dataset provides a summary of a subject's actual visits over the course of their participation. Comparison of SV with the TV dataset (planned visits) supports identification of planned but not completed visits. **[Source: domains/SV/assumptions.md — overview]**\n\n2. **Date tracking**: SVSTDTC and SVENDTC capture the actual start and end date/times of each visit. Comparison of SVSTDY and SVENDY to VISIT and/or VISITDY can highlight departures from planned timing. **[Source: domains/SV/assumptions.md — overview]**\n\n3. **Unplanned visits**: Records for unplanned visits must be included in SV. SVUPDES can be populated with a description of the reason. When data are collected outside a planned visit, the encounter should generally be treated as a visit if data from the encounter are included in any domain for which VISITNUM is included. **[Source: domains/SV/assumptions.md — item_6]**\n\n4. **Pandemic disruption**: SV includes SVEPCHGI (Epi/Pandemic Related Change Indicator) to indicate when a visit was modified due to pandemic circumstances (e.g., change from in-person to remote). **[Source: domains/SV/examples.md — Example 1]**\n\n### Relationship Between SV and Other Domains\n\n- **TV dataset**: Defines planned visits; SV records actual visits per subject. VISITNUM values in SV that match TV values indicate planned visits; values not in TV indicate unplanned visits. **[Source: domains/TV/assumptions.md — item_6]**\n- **Subject-level domains**: All observation-class domains (AE, LB, VS, etc.) use VISITNUM as a Timing variable. The SV dataset provides the authoritative record of when those visits actually occurred for each subject. **[Source: chapters/ch04_general_assumptions.md §4.4.5]**\n\n### Example of VISITNUM Consistency\n\nFrom the SV example showing pandemic-disrupted study:\n\n| USUBJID | VISIT | VISITNUM | VISITDY | SVSTDTC | SVENDTC | SVEPCHGI |\n|---------|-------|----------|---------|---------|---------|----------|\n| 101 | SCREEN | 1 | | 2020-02-13 | 2020-02-13 | |\n| 101 | DAY 1 | 2 | 1 | 2020-02-20 | 2020-02-20 | |\n| 101 | WEEK 1 | 3 | 8 | 2020-02-27 | 2020-02-27 | Y |\n\n**[Source: domains/SV/examples.md — Example 1]**\n\nThe same VISITNUM values (1, 2, 3) would appear in all other domains (LB, VS, etc.) for subject 101's records collected at those visits, ensuring cross-domain consistency."
 },
 {
  "id": "q33",
  "category": "cross_domain",
  "question": "What is the RELSPEC domain and how does it define relationships between datasets at the study level, as opposed to RELREC which links individual records?",
  "expected_facts": [
   "RELSPEC",
   "RELREC"
  ],
  "answer": "# RELSPEC Domain vs RELREC Domain\n\n## RELSPEC Domain\n\n**RELSPEC** (Related Specimens) is a special-purpose relationship domain used exclusively to describe relationships **between specimens** — specifically, specimen lineage (e.g., parent specimen to derived aliquots or processed specimens). **[Source: model/06_relationship_datasets.md §6.7]**\n\n### Key Characteristics\n\n| Aspect | Detail |\n|--------|--------|\n| **Purpose** | Maintain relationships between specimens only |\n| **Structure** | One record per specimen identifier per subject |\n| **Subject-level?** | Yes |\n| **Scope** | Specimen genealogy tracking only |\n\n### Variables (6 variables)\n\n| # | Variable | Label | Type | Role | Notes |\n|---|----------|-------|------|------|-------|\n| 1 | STUDYID | Study Identifier | Char | Identifier | |\n| 2 | USUBJID | Unique Subject Identifier | Char | Identifier | |\n| 3 | REFID | Reference ID | Char | Identifier | C82531 |\n| 4 | SPEC | Specimen Type | Char | Variable Qualifier (REFID) | C70713 |\n| 5 | PARENT | Specimen Parent | Char | Identifier | Identifies the REFID of the parent of a specimen to support tracking its genealogy |\n| 6 | LEVEL | Specimen Level | Num | Variable Qualifier (REFID) | Identifies the generation number of the sample where the collected sample is considered the first generation |\n\n**[Source: model/06_relationship_datasets.md §6.7]**\n\n### Critical Constraints\n\n1. **The RELSPEC dataset is not used to manage relationships between any other datasets or domains.** **[Source: domains/RELSPEC/assumptions.md item_1]**\n2. **The RELSPEC dataset is only used to maintain relationships between specimens, therefore it does not require any additional variables such as those used in RELREC.** **[Source: domains/RELSPEC/assumptions.md item_2]**\n\n---\n\n## RELREC Domain\n\n**RELREC** (Related Records) is a special-purpose relationship dataset used to describe relationships **between records** for a subject (within or across domains) and **between datasets** (at the study level). **[Source: chapters/ch08_relationships.md §8.2.1]**\n\n### Key Characteristics\n\n| Aspect | Detail |\n|--------|--------|\n| **Purpose** | Link records within/across domains, or link entire datasets |\n| **Structure** | One record per related record, group of records, or dataset |\n| **Subject-level?** | Both subject-level and dataset-level |\n| **Scope** | Any domain records or datasets |\n\n### Variables (10 variables)\n\n| # | Variable | Label | Type | Role | Core |\n|---|----------|-------|------|------|------|\n| 1 | STUDYID | Study Identifier | Char | Identifier | Req |\n| 2 | RDOMAIN | Related Domain Abbreviation | Char | Identifier | Req |\n| 3 | USUBJID | Unique Subject Identifier | Char | Identifier | Exp |\n| 4 | APID | Associated Persons Identifier | Char | Identifier | — |\n| 5 | POOLID | Pool Identifier | Char | Identifier | — |\n| 6 | SPDEVID | Sponsor Device Identifier | Char | Identifier | — |\n| 7 | IDVAR | Identifying Variable | Char | Identifier | Req |\n| 8 | IDVARVAL | Identifying Variable Value | Char | Identifier | Exp |\n| 9 | RELTYPE | Relationship Type | Char | Record Qualifier | Exp |\n| 10 | RELID | Relationship Identifier | Char | Record Qualifier | Req |\n\n**[Source: model/06_relationship_datasets.md §6.1; chapters/ch08_relationships.md §8.2.1]**\n\n---\n\n## Key Differences: RELSPEC vs RELREC\n\n| Dimension | RELSPEC | RELREC |\n|-----------|---------|--------|\n| **Primary purpose** | Specimen lineage/genealogy | Record-to-record or dataset-to-dataset relationships |\n| **Scope** | Specimens only | Any domain records or datasets |\n| **Relationship type** | Parent-child (hierarchical) | Peer records or dataset relationships |\n| **Key variables** | REFID, PARENT, LEVEL | RDOMAIN, IDVAR, IDVARVAL, RELID, RELTYPE |\n| **USUBJID** | Required | Required for peer records; null for dataset-level relationships |\n| **Can relate datasets?** | **No** — explicitly prohibited | **Yes** — both peer records and datasets |\n| **Additional variables needed?** | No (simple structure) | Yes (IDVAR, IDVARVAL, RELTYPE, RELID) |\n| **Introduced in** | SDTM v2.0 (new) | Original SDTM |\n\n**[Source: domains/RELSPEC/assumptions.md items_1-2; model/06_relationship_datasets.md §6.1, §6.7]**\n\n---\n\n## How RELREC Defines Dataset-Level Relationships\n\nRELREC can represent **dataset-to-dataset relationships** (not just record-to-record). When used for this purpose:\n\n1. **USUBJID is null** — because the relationship is at the dataset level, not the subject level. **[Source: chapters/ch08_relationships.md §8.3.1]**\n2. **IDVAR** contains the name of the key variable used to merge/join the two datasets (e.g., `--LNKID`, `--GRPID`, `--SPID`, `--REFID`). **[Source: chapters/ch08_relationships.md §8.3.1]**\n3. **IDVARVAL is null** — because the relationship applies to all records in the dataset, not a specific value. **[Source: chapters/ch08_relationships.md §8.3.1]**\n4. **RELTYPE** identifies the hierarchical relationship using values `ONE` or `MANY` (controlled terminology expected). **[Source: chapters/ch08_relationships.md §8.3.1]**\n\n### RELTYPE Combinations for Dataset Relationships\n\n| Source RELTYPE | Target RELTYPE | Meaning |\n|---------------|----------------|---------|\n| ONE | ONE | No hierarchical relationship; 1:1 match |\n| ONE | MANY | Parent-child relationship; one record matches many |\n| MANY | ONE | Child-parent relationship; many records match one |\n| MANY | MANY | Many-to-many (unusual, challenging to merge) |\n\n**[Source: model/06_relationship_datasets.md §6.1]**\n\n### Example: Dataset-Level Relationship\n\n```\nSTUDYID | RDOMAIN | USUBJID | IDVAR   | IDVARVAL | RELTYPE | RELID\n--------|---------|---------|---------|----------|---------|------\nEFC1234 | TU      |         | TULNKID |          | ONE     | 1\nEFC1234 | TR      |         | TRLNKID |          | MANY    | 1\n```\n\nThis represents a one-to-many relationship between the TU (Tumor Identification) and TR (Tumor Results) datasets, linked by the `--LNKID` variable. **[Source: chapters/ch08_relationships.md §8.3.1]**\n\n---\n\n## Summary\n\n- **RELSPEC** is narrowly scoped to **specimen genealogy only** — it tracks parent-child relationships between specimens using REFID, PARENT, and LEVEL. It cannot relate datasets or non-specimen records. **[Source: domains/RELSPEC/assumptions.md items_1-2]**\n- **RELREC** is broadly scoped to **any relationship** — it can link individual records (peer records) within or across domains, or entire datasets at the study level using RDOMAIN, IDVAR, IDVARVAL, RELTYPE, and RELID. **[Source: chapters/ch08_relationships.md §8.2.1, §8.3]**\n- **RELSPEC does not replace RELREC** — they serve different purposes. RELSPEC is for specimen lineage; RELREC is for general record/dataset relationships. **[Source: model/06_relationship_datasets.md §6.7]**\n- **RELSPEC was added new in SDTM v2.0** (previously part of the provisional SDTMIG-PGx) and is now included in SDTMIG v3.4. **[Source: model/06_relationship_datasets.md §6.7]**"
 },
 {
  "id": "q34",
  "category": "cross_domain",
  "question": "Which SDTM domains share the controlled terminology codelist for NY (No Yes Response, C66742), and what variable typically uses this codelist in those domains?",
  "expected_facts": [
   "C66742",
   "NY"
  ],
  "answer": "Based on the retrieved context, the **No Yes Response (C66742)** codelist is shared across the following SDTM domains, typically used in variables that require a Yes/No/NA/Unknown response:\n\n| Domain | Variable(s) Using C66742 | Source |\n|--------|--------------------------|--------|\n| **SV** (Subject Visits) | `SVPRESP`, `SVOCCUR`, `SVEPCHGI` | [Source: domains/SV/spec.md] |\n| **TM** (Trial Disease Milestones) | `TMRPT` | [Source: domains/TM/spec.md] |\n\nAdditionally, the **NY codelist** (C66742) is referenced in the general controlled terminology file for **No Yes Response**, which contains the values:\n- **Y** (Yes)\n- **N** (No)\n- **NA** (Not Applicable)\n- **U** (Unknown)\n\n[Source: terminology/core/general_part4.md]\n\n**Note:** While the NY codelist is widely used across many SDTM domains (e.g., `--PRESP`, `--OCCUR`, `--BLFL`, `--DRVFL`, etc.), the retrieved context only explicitly documents its use in **SV** and **TM**. Other domains (such as AE, CE, DS, DV, etc.) also commonly use this codelist for similar flag variables, but those specific associations are not present in the provided context."
 },
 {
  "id": "q11",
  "category": "concept",
  "question": "What are the three observation classes in the SDTM model?",
  "expected_facts": [
   "Interventions",
   "Events",
   "Findings"
  ],
  "answer": "The three general observation classes in the SDTM model are **Interventions**, **Events**, and **Findings**.\n\nThese classes form the core framework for organizing most subject-level data collected during a study. Each class has a distinct definition:\n\n1. **Interventions** — Represent investigational, therapeutic, and other treatments that are administered to or used by a subject, with some actual or expected physiological effect. This includes protocol-specified treatments (exposure) and concomitant medications. **[Source: model/02_observation_classes.md — 3.1.1 The Interventions Observation Class]**\n\n2. **Events** — Represent something that happens to a subject spontaneously (e.g., adverse events, medical history conditions, protocol deviations). Most events data in clinical trials are medical events. **[Source: chapters/ch08_relationships.md — 8.6.1 Guidelines for Determining the General Observation Class]**\n\n3. **Findings** — Include measurements, tests, assessments, or examinations performed on a subject (or on a specimen taken from a subject). Examples include laboratory test results, vital signs, ECG results, and physical examination findings. **[Source: chapters/ch08_relationships.md — 8.6.1 Guidelines for Determining the General Observation Class]**\n\nThese three classes share a common set of identifier and timing variables, and any valid identifier or timing variable is permissible for use in any dataset based on a general observation class. **[Source: model/02_observation_classes.md — Overview]**"
 },
 {
  "id": "q12",
  "category": "concept",
  "question": "What do the Core designations Req, Exp, and Perm mean in SDTM?",
  "expected_facts": [
   "Required",
   "Expected",
   "Permissible"
  ],
  "answer": "## SDTM Core Designations: Req, Exp, and Perm\n\nThe Core column in SDTM domain models specifies three categories that define whether a variable must be included in a dataset and whether it can contain null values.\n\n### Required (Req)\n\n| Attribute | Value |\n|-----------|-------|\n| **Meaning** | A Required variable is basic to the identification of a data record (i.e., essential key variables and a topic variable) or is necessary to make the record meaningful. |\n| **Rule** | Must always be included in the dataset and **cannot be null for any record**. |\n\n**[Source: chapters/ch04_general_assumptions.md — 4.1.5 SDTM Core Designations]**\n\n### Expected (Exp)\n\n| Attribute | Value |\n|-----------|-------|\n| **Meaning** | Any variable necessary to make a record useful in the context of a specific domain. |\n| **Rule** | Must be included in the dataset. Values should be populated when available; null values are allowed when data are not collected or not applicable. If the study does not include the data item for an expected variable, the null column must still be included in the dataset, and a comment must be included in the Define-XML document stating that the study does not include the data item. |\n\n**[Source: chapters/ch04_general_assumptions.md — 4.1.5 SDTM Core Designations]**\n\n### Permissible (Perm)\n\n| Attribute | Value |\n|-----------|-------|\n| **Meaning** | May be included in the dataset. |\n| **Rule** | If a study includes a data item that would be represented in a Permissible variable, then that variable **must** be included (even if null) and declared in Define-XML. If a study did not collect the data, the variable should **not** be included in the dataset and should **not** be declared in Define-XML. |\n\n**[Source: chapters/ch04_general_assumptions.md — 4.1.5 SDTM Core Designations]**\n\n---\n\n### Additional Notes\n\n- All identifier, timing, and general observation class variables listed in the SDTM model are permissible unless specifically restricted by the implementation guide or by specific domain assumptions. **[Source: chapters/ch04_general_assumptions.md — 4.1.5]**\n- Domain assumptions that say a Permissible variable is \"generally not used\" do not prohibit use of the variable. **[Source: chapters/ch04_general_assumptions.md — 4.1.5]**\n- For controlled terminology, a null value is implied for any list of controlled terms unless the variable is Required. **[Source: chapters/ch04_general_assumptions.md — 4.3.3]**"
 },
 {
  "id": "q13",
  "category": "concept",
  "question": "What is the difference between Topic, Qualifier, and Identifier variable roles?",
  "expected_facts": [
   "Topic",
   "Qualifier",
   "Identifier"
  ],
  "answer": "## Difference Between Topic, Qualifier, and Identifier Variable Roles\n\nThe SDTM defines **5 major variable roles**, of which Identifier, Topic, and Qualifier are three. Each role describes the type of information conveyed by the variable about each distinct observation and how it can be used. **[Source: model/01_concepts_and_terms.md]**\n\n### 1. Identifier Variables\n\n**Purpose:** Identify the study, subject, domain, and sequence number of the record.\n\n**Examples:** STUDYID, USUBJID, DOMAIN, --SEQ\n\n**Key characteristics:**\n- Always appear first in the variable ordering for all general observation classes **[Source: chapters/ch04_general_assumptions.md §4.1.4]**\n- Required for every domain dataset\n- Provide the keys for linking records across domains (e.g., USUBJID links subject data; --SEQ uniquely identifies a record within a domain)\n\n### 2. Topic Variables\n\n**Purpose:** Specify the focus of the observation — what the observation is about.\n\n**Examples:**\n- **Interventions:** --TRT (e.g., CMTRT = \"ASPIRIN\") — the treatment name\n- **Events:** --TERM (e.g., AETERM = \"NAUSEA\") — the event term\n- **Findings:** --TESTCD (e.g., LBTESTCD = \"GLUC\") — the short name of the measurement/test\n\n**Key characteristics:**\n- Each observation class has a specific topic variable naming convention (--TRT for Interventions, --TERM for Events, --TESTCD for Findings) **[Source: model/02_observation_classes.md]**\n- Topic variables appear after Identifier variables in the variable ordering **[Source: chapters/ch04_general_assumptions.md §4.1.4]**\n- The topic variable value is the primary descriptor of what the record represents\n\n### 3. Qualifier Variables\n\n**Purpose:** Include additional illustrative text or numeric values that describe the results or additional traits of the observation. **[Source: chapters/ch02_fundamentals.md §2.1]**\n\n**Subclasses of Qualifiers:**\n\n| Subclass | Purpose | Examples |\n|----------|---------|----------|\n| **Grouping Qualifiers** | Group together a collection of observations within the same domain | --CAT, --SCAT |\n| **Result Qualifiers** | Describe the specific results associated with the topic variable (Findings only) | --ORRES, --STRESC, --STRESN |\n| **Synonym Qualifiers** | Specify an alternative name for a particular variable | --MODIFY, --DECOD (for --TRT/--TERM); --TEST (for --TESTCD) |\n| **Record Qualifiers** | Define additional attributes of the observation record as a whole | --REASND, AESLIFE, AGE, SEX, --BLFL, --POS, --LOC |\n| **Variable Qualifiers** | Modify or describe a specific variable within an observation | --ORRESU (qualifies --ORRES), --DOSU (qualifies --DOSE) |\n\n**Key characteristics:**\n- Appear after Topic variables in the variable ordering **[Source: chapters/ch04_general_assumptions.md §4.1.4]**\n- Qualifiers are the most diverse role, covering everything from severity (AESEV) to units (--ORRESU) to normal ranges (--NRIND)\n- Some qualifiers are class-specific (e.g., Result Qualifiers exist only in the Findings class) **[Source: model/02_observation_classes.md §3.1.3]**\n\n### Summary Comparison Table\n\n| Aspect | Identifier | Topic | Qualifier |\n|--------|------------|-------|-----------|\n| **Core question answered** | \"Who, what study, what domain, which record?\" | \"What is this observation about?\" | \"What are the details/attributes?\" |\n| **Position in dataset** | First | Second | Third (before Timing) |\n| **Required in every domain?** | Yes (STUDYID, DOMAIN, USUBJID, --SEQ) | Yes | No (varies by domain) |\n| **Class-specific?** | No (same across all classes) | Yes (--TRT, --TERM, --TESTCD differ by class) | Some are class-specific (e.g., Result Qualifiers only in Findings) |\n| **Used for linking?** | Yes (primary keys) | No | No |\n| **Example** | USUBJID = \"101\" | AETERM = \"NAUSEA\" | AESEV = \"MILD\" |\n\n### Variable Ordering Rule\n\nFor all 3 general observation classes, variables must be ordered as: **Identifiers → Topic → Qualifiers → Timing** **[Source: chapters/ch04_general_assumptions.md §4.1.4]**. This ordering is required in the Define-XML document and must reflect the actual column order in the dataset."
 },
 {
  "id": "q14",
  "category": "concept",
  "question": "How should a sponsor create a new custom domain in SDTM?",
  "expected_facts": [
   "observation class"
  ],
  "answer": "# Creating a New Custom Domain in SDTM\n\nBased on the SDTMIG v3.4 knowledge base, here are the key rules and guidelines for sponsors creating custom domains:\n\n## Domain Code Naming Convention\n\nTo avoid conflicts with future CDISC-defined domain codes, **domain codes beginning with X, Y, or Z** have been reserved for custom domains. Any letter or number may be used in the second position. Note that using codes beginning with X, Y, or Z is optional, not required. **[Source: chapters/ch04_general_assumptions.md §4.1.6]**\n\nThe 2-character domain code is limited to:\n- First character: A-Z\n- Second character: A-Z, 0-9\n- No other characters are allowed (for compatibility with SAS v5 transport files and eCTD requirements) **[Source: chapters/ch04_general_assumptions.md §4.2.2]**\n\n## Variable Naming Rules\n\nWhen creating custom domains based on the general observation classes, sponsors must:\n1. Replace the \"--\" prefix in SDTM tables of General Observation Class, Timing, and Identifier variables with the 2-character domain identifier (DOMAIN) value for that domain/dataset **[Source: chapters/ch04_general_assumptions.md §4.2.2]**\n\n## Determining the General Observation Class\n\nA key part of creating a new domain is determining whether an observation represents an **event**, an **intervention**, or a **finding**:\n\n- **Intervention**: Something done to a subject (possibly by the subject) that is expected to have a physiological effect\n- **Event**: Something that happens to a subject spontaneously\n- **Finding**: Measurements, tests, assessments, or examinations performed on a subject **[Source: chapters/ch08_relationships.md §8.6.1]**\n\nBegin by considering the content of the information in light of the definitions of the 3 general observation classes, rather than trying to deduce the class from the information's physical structure. **[Source: chapters/ch08_relationships.md §8.6.1]**\n\n## Additional Guidance\n\n- The SDTMIG provides domain models that illustrate how to apply the SDTM when creating a specific domain dataset, including selecting a subset of variables from a general observation class along with applicable timing variables **[Source: chapters/ch03_submitting_data.md §3.1]**\n- Custom body system-based domains may be used if the appropriate body system-based domain is not included in the SDTMIG version being used **[Source: chapters/ch10_appendices.md — Appendix E]**\n- The domain code \"SA\" has been reserved for CDASH, and \"SQ\" also occurs in the SDTMIG-AP **[Source: chapters/ch10_appendices.md — Appendix E]**\n\n## Summary Checklist\n\n| Step | Requirement |\n|------|-------------|\n| 1 | Determine the General Observation Class (Interventions, Events, or Findings) |\n| 2 | Choose a 2-character domain code (X/Y/Z prefix recommended for custom domains) |\n| 3 | Replace \"--\" prefix with the domain code in all variable names |\n| 4 | Follow the appropriate general observation class variable template |\n| 5 | Document metadata in Define-XML |"
 },
 {
  "id": "q15",
  "category": "concept",
  "question": "What are the three SDTM Core designation categories for variables, and what are the rules for handling a Permissible variable when a study did not collect the corresponding data item?",
  "expected_facts": [
   "Req",
   "Exp",
   "Perm"
  ],
  "answer": "## SDTM Core Designations and Permissible Variable Rules\n\n### Three Core Designation Categories\n\nThe SDTM specifies three categories in the Core column of domain models **[Source: chapters/ch04_general_assumptions.md — 4.1.5 SDTM Core Designations]**:\n\n| Core Value | Meaning | Rule |\n|------------|---------|------|\n| **Req** (Required) | Basic to identification of a data record (essential key variables, topic variable) or necessary to make the record meaningful | Must always be included in the dataset and **cannot be null for any record** |\n| **Exp** (Expected) | Necessary to make a record useful in the context of a specific domain | Must be included in the dataset; value should be populated when available; null values allowed when data not collected/applicable; must still include the column and add a comment in Define-XML stating the study does not include the data item |\n| **Perm** (Permissible) | May be included in the dataset | Rules depend on whether the data item was collected (see below) |\n\n### Rules for Permissible Variables When Data Were Not Collected\n\nWhen a study **did not collect** the data item that would be represented in a Permissible variable:\n\n> **The variable should NOT be included in the SDTM dataset and should NOT be declared in the Define-XML document.** **[Source: chapters/ch04_general_assumptions.md — 4.1.5 SDTM Core Designations]**\n\nThis is in contrast to the rule when a study **does collect** the data item: the variable must be included (even if null) and declared in Define-XML."
 },
 {
  "id": "q35",
  "category": "concept",
  "question": "What is Controlled Terminology (CT) in SDTM and how does it constrain the values that variables can contain?",
  "expected_facts": [
   "codelist",
   "Controlled Terms"
  ],
  "answer": "## Controlled Terminology (CT) in SDTM\n\n**Controlled Terminology (CT)** in SDTM refers to standardized, centrally managed sets of permissible values for specific variables, maintained by the CDISC Controlled Terminology Team through the NCI Enterprise Vocabulary Services (NCI-EVS). CT ensures consistent representation of data across studies and submissions.\n\n### How CT Constrains Variable Values\n\n#### 1. **Codelist Assignment**\nVariables in SDTM domain specifications include a \"Controlled Terms, Codelist or Format\" column that indicates how values are constrained:\n\n- **Named CDISC codelist** (e.g., \"(NY)\") — values must come from that specific codelist\n- **Single asterisk (*)** — CDISC CT not yet available; sponsors may use their own terminology\n- **Single applicable value** (e.g., \"PR\" for DOMAIN) — only that value is allowed\n- **External terminology reference** (e.g., \"MedDRA\", \"ISO 3166-1 alpha-3\") — values must conform to that external standard\n- **ISO 8601 format** — values must follow the date/time format standard\n\n**[Source: chapters/ch04_general_assumptions.md — 4.3.1 Controlled Terms, Codelist or Format Column]**\n\n#### 2. **Value Restriction Rules**\n- All values in the permissible value set for the study must be included in Define-XML, whether or not they appear in submitted data\n- A null value should **not** be included in the permissible value set (null is implied unless the variable is Required)\n- Only values that were part of **planned data collection** should be included in Define-XML\n- Example: `--PRESP` variables use the NY codelist, but only the value \"Y\" is allowed\n\n**[Source: chapters/ch04_general_assumptions.md — 4.3.3 Controlled Terminology Values]**\n\n#### 3. **Text Case Requirement**\nTerms from controlled terminology must appear in the **same case** as in the source codelist or code system (e.g., CDISC codelist or MedDRA).\n\n**[Source: chapters/ch04_general_assumptions.md — 4.3.2 Controlled Terminology Text Case]**\n\n#### 4. **Domain-Specific Constraints**\nSome domains have specific CT rules. For example:\n- **TR domain**: `TRTESTCD`/`TRTEST` values are published as CT, with associated codelists for `TRORRES` values\n- **TS domain**: CDISC CT includes codelists for `TSVAL` values, but recipients may specify alternative terminology\n\n**[Source: domains/TR/assumptions.md — item_3]**\n**[Source: domains/TS/assumptions.md — item_8]**\n\n#### 5. **Variable Length Implications**\nFor variables using controlled terminology, the length can be set to the length of the **longest term** in the codelist, rather than using the maximum 200-character default.\n\n**[Source: chapters/ch04_general_assumptions.md — 4.2.9 Variable Lengths]**\n\n### CT Management and Access\n\n- CDISC CT is centrally managed by the CDISC Controlled Terminology Team\n- New/modified terms follow a 3-month development period with quarterly public-review comment periods\n- Access the full list at: https://www.cancer.gov/research/resources/terminology/cdisc\n- As of the 2015-12-18 release, questionnaire and domain terminology were merged into a single publication\n\n**[Source: chapters/ch10_appendices.md — Appendix C: Controlled Terminology]**\n\n### Summary\n\nCT constrains variable values by:\n1. Defining **explicit codelists** of allowed values for specific variables\n2. Requiring **exact case matching** to the source terminology\n3. Mandating that **only planned collection values** appear in Define-XML\n4. Allowing **external standards** (MedDRA, ISO) where applicable\n5. Enabling **appropriate variable lengths** based on the longest term"
 },
 {
  "id": "q36",
  "category": "concept",
  "question": "What are the timing variables in SDTM (such as --DTC, --STDTC, --ENDTC) and how are they structured across domains?",
  "expected_facts": [
   "DTC",
   "STDTC",
   "ENDTC",
   "Timing"
  ],
  "answer": "# SDTM Timing Variables: Structure and Usage Across Domains\n\n## Overview\n\nTiming variables are an essential component of all SDTM subject-level domain datasets. In general, all domains based on the 3 general observation classes should have at least 1 timing variable. **[Source: chapters/ch04_general_assumptions.md §4.4]**\n\n## Core Date/Time Variables\n\nThe three primary date/time timing variables are:\n\n| Variable | Label | Type | Format | Notes |\n|----------|-------|------|--------|-------|\n| **--DTC** | Date/Time of Collection | Char | ISO 8601 | Primary date/time for the observation |\n| **--STDTC** | Start Date/Time of Observation | Char | ISO 8601 | **Not** used in Findings class domains |\n| **--ENDTC** | End Date/Time of Observation | Char | ISO 8601 | |\n\n**[Source: model/02_observation_classes.md §3.1.5]**\n\n## Class-Specific Usage Rules\n\n### Findings Class Domains\n- **--DTC** represents the date/time of specimen collection (not data recording)\n- **--STDTC** should **not** be used in Findings class domains\n- For single-point collections: use **--DTC** only\n- For interval collections (e.g., 24-hour urine): use **--DTC** for start and **--ENDTC** for end\n\n**[Source: chapters/ch04_general_assumptions.md §4.4.8]**\n\n### Events Class Domains\n- **--STDTC** holds the start date/time of the event\n- **--ENDTC** holds the end date/time (if applicable)\n- **--DTC** typically holds the date/time of data collection\n\n### Interventions Class Domains\n- **--STDTC** holds the start date/time of the intervention\n- **--ENDTC** holds the end date/time (if applicable)\n- **--DTC** typically holds the date/time of data collection\n\n## Domain-Specific Examples\n\n### Biospecimen Events (BE)\n- **BESTDTC** and **BEENDTC** hold start/end date/times for the event\n- **BEDTC** holds the date/time of **specimen collection** (unlike other Events domains), aligning with Findings usage for specimen-related data\n- If end date/time equals start date/time, BEENDTC is null\n\n**[Source: domains/BE/assumptions.md item_6]**\n\n### Disposition (DS)\n- **DSSTDTC** is expected and used for the date/time of the disposition event\n- Disposition events do not have end dates (they occur at a single date/time)\n- **EPOCH** is based on **DSSTDTC**\n\n**[Source: domains/DS/assumptions.md item_4]**\n\n### Subject Visits (SV)\n- **--DTC** and **--DY** record the date on which data was collected\n- When SVPRESP = \"Y\" and SVOCCUR = \"N\", --DTC and --DY represent the date it was recorded that the visit did not take place\n\n**[Source: domains/SV/assumptions.md item_15]**\n\n## EPOCH Variable Guidance\n\n- **Findings class**: EPOCH should be based on **--DTC** (date/time of test or specimen collection)\n- **Interventions/Events class**: EPOCH should be based on **--STDTC** (start of intervention or event)\n- Exception: For interval specimen collections spanning epochs, **--ENDTC** may be more appropriate\n- EPOCH should be null for observations before study participation (including screening)\n- Sponsors should not impute EPOCH values\n\n**[Source: chapters/ch04_general_assumptions.md §4.1.3.1]**\n\n## ISO 8601 Format Requirements\n\nAll date/time variables use ISO 8601 extended format:\n\n```\nYYYY-MM-DDThh:mm:ss(.n+)?(((+|-)hh:mm)|Z)?\n```\n\n- **Spaces are not allowed** in any ISO 8601 representations\n- The basic format (without delimiters) should **not** be used\n- Date/time variables are **character/text** data types\n- The SDTM fragment for date/time character variables is **DTC**\n\n**[Source: chapters/ch04_general_assumptions.md §4.4.1]**\n\n## Study Day Variables\n\n| Variable | Label | Derivation |\n|----------|-------|------------|\n| **--DY** | Study Day of Visit/Collection/Exam | Derived from --DTC and RFSTDTC |\n| **--STDY** | Study Day of Start of Observation | Not in Findings class domains |\n| **--ENDY** | Study Day of End of Observation | |\n\n**Derivation rule**: RFSTDTC = study day 1. Dates after RFSTDTC increment by 1. Dates before RFSTDTC decrement by 1 (no day 0). Partial dates should not be used to derive study day.\n\n**[Source: chapters/ch04_general_assumptions.md §4.4.4]**\n\n## Complete Timing Variable Set (48 variables)\n\nThe full set includes:\n- **Visit/Epoch**: VISITNUM, VISIT, VISITDY, TAETORD, EPOCH\n- **Date/Time**: --DTC, --STDTC, --ENDTC\n- **Study Day**: --DY, --STDY, --ENDY, --NOMDY, --NOMLBL, --RPDY, --RPSTDY, --RPENDY, --XDY, --XSTDY, --XENDY, --CHDY, --CHSTDY, --CHENDY\n- **Duration**: --DUR\n- **Time Point**: --TPT, --TPTNUM, --ELTM, --TPTREF, --RFTDTC\n- **Relative Timing**: --STRF, --ENRF, --EVLINT, --EVINTX, --STRTPT, --STTPT, --ENRTPT, --ENTPT\n\n**[Source: model/02_observation_classes.md §3.1.5]**\n\n## Key Restrictions\n\n1. **--STDTC** is prohibited in Findings class domains\n2. Timing variables cannot be added to SUPPQUAL or RELREC datasets\n3. Time point variables (--TPT, --TPTNUM, etc.) are inappropriate for SV and SE domains\n4. Additional timing variables can be added to standard domain models except where restricted by Assumption 4.4.8\n\n**[Source: chapters/ch04_general_assumptions.md §4.1.3; domains/SV/assumptions.md item_15; domains/SE/assumptions.md item_11]**"
 },
 {
  "id": "q37",
  "category": "concept",
  "question": "What are the Special-Purpose datasets in SDTM and which domains fall into this category?",
  "expected_facts": [
   "Special-Purpose",
   "DM",
   "CO",
   "SE"
  ],
  "answer": "## Special-Purpose Datasets in SDTM\n\nSpecial-Purpose datasets are a category of standardized datasets in SDTM that exist **in addition to the 3 general observation classes** (Interventions, Events, Findings). They have specific standardized structures to represent additional important information beyond the general observation class model. **[Source: model/03_special_purpose_domains.md]**\n\n### Domains Classified as Special-Purpose\n\nBased on the SDTMIG v3.4, the following domains fall into the Special-Purpose category:\n\n| Domain | Name | Description |\n|--------|------|-------------|\n| **CO** | Comments | Contains free-text comments related to data in one or more SDTM domains or collected on a separate CRF page dedicated to comments. **[Source: domains/CO/assumptions.md]** |\n| **DM** | Demographics | Includes a set of essential standard variables that describe each subject in a clinical study; it is the parent domain for all other observations for human clinical subjects. **[Source: terminology/core/general_part4.md]** |\n| **SE** | Subject Elements | One record per actual Element per subject. **[Source: chapters/ch03_submitting_data.md]** |\n| **SM** | Subject Disease Milestones | One record per Disease Milestone per subject. **[Source: chapters/ch03_submitting_data.md]** |\n| **SV** | Subject Visits | One record per actual or planned visit per subject. **[Source: chapters/ch03_submitting_data.md]** |\n\n### Relationship Datasets (Also Special-Purpose)\n\nThe following relationship datasets are also classified as special-purpose:\n\n| Domain | Name | Description |\n|--------|------|-------------|\n| **RELREC** | Related Records | Describes relationships between records for a subject (peer records) and relationships between datasets. **[Source: domains/RELREC/assumptions.md]** |\n| **SUPPQUAL** | Supplemental Qualifiers | Captures non-standard variables (NSVs) and their association to parent records in general-observation class datasets, DM, and SV. **[Source: domains/SUPPQUAL/assumptions.md]** |\n\n### Key Characteristics\n\n1. **Distinct from General Observation Classes**: Special-purpose domains are not based on the Interventions, Events, or Findings classes. **[Source: model/03_special_purpose_domains.md]**\n\n2. **Standardized Structure**: Each special-purpose domain has its own specific structure defined in the SDTMIG. **[Source: model/03_special_purpose_domains.md]**\n\n3. **Dataset Structure Examples** (from SDTMIG v3.4):\n   - **DM**: One record per subject (Structure: \"One record per subject\") **[Source: chapters/ch03_submitting_data.md]**\n   - **CO**: One record per comment per subject **[Source: chapters/ch03_submitting_data.md]**\n   - **SE**: One record per actual Element per subject **[Source: chapters/ch03_submitting_data.md]**\n   - **SV**: One record per actual or planned visit per subject **[Source: chapters/ch03_submitting_data.md]**\n\n4. **Variable Naming Exceptions**: Unlike general observation class domains, special-purpose domains do **not** follow the \"--\" prefix convention for all variables. For example, DM domain variables (other than DMDTC and DMDY) are exceptions to the domain-prefix rule. **[Source: chapters/ch04_general_assumptions.md]**\n\n### Note on DI (Device Identifiers)\n\nThe DI domain was originally classified as a special-purpose domain but has been reclassified as a **study reference dataset** since SDTM v1.7. **[Source: domains/DI/assumptions.md]**"
 },
 {
  "id": "q38",
  "category": "concept",
  "question": "How are SDTM domain abbreviation codes assigned? What are the rules for the two-character domain code?",
  "expected_facts": [
   "two-character",
   "DOMAIN"
  ],
  "answer": "Based on the retrieved context, SDTM domain abbreviation codes are assigned as follows:\n\n## Domain Code Assignment Rules\n\n### Standard Assignment\nSDTM datasets are normally named to be consistent with the domain code. For example, the Demographics dataset (DM) is named `dm.xpt`. Standard domain codes are defined in the **SDTM Domain Abbreviation codelist (C66734)** in CDISC Controlled Terminology. **[Source: chapters/ch04_general_assumptions.md — 4.1.6]**\n\n### The DOMAIN Variable\nThe DOMAIN variable is a **two-character abbreviation** for the domain most relevant to the observation. It is defined as:\n- **Label:** Domain Abbreviation\n- **Type:** Char\n- **Role:** Identifier\n- **Core:** Required\n- **Controlled Terms:** (not specified in the retrieved spec files, but governed by C66734)\n\nThe domain abbreviation is also used as a **prefix for variables** to ensure uniqueness when datasets are merged. **[Source: domains/SV/spec.md — DOMAIN]**\n\n### Custom Domain Codes\nTo avoid conflicts with future CDISC-defined domain codes:\n- **Domain codes beginning with X, Y, or Z** are reserved for the creation of custom domains.\n- Any letter or number may be used in the **second position**.\n- Note: Use of codes beginning with X, Y, or Z is **optional**, not required for custom domains. **[Source: chapters/ch04_general_assumptions.md — 4.1.6]**\n\n### Exceptions\nExceptions to the standard naming rule are described in:\n- **Section 4.1.7 (Splitting Domains)** — for general observation class datasets\n- **Section 8 (Representing Relationships and Data)** — for RELREC and SUPP-- datasets **[Source: chapters/ch04_general_assumptions.md — 4.1.6]**\n\n---\n\n**Summary:** Domain codes are two-character abbreviations from the CDISC standard codelist (C66734), with X/Y/Z reserved for custom domains. The DOMAIN variable is a Required Identifier in every dataset."
 },
 {
  "id": "q39",
  "category": "concept",
  "question": "What is the Findings About observation class and how does it differ from the standard Findings class?",
  "expected_facts": [
   "Findings About",
   "FAOBJ"
  ],
  "answer": "## Findings About Observation Class\n\nThe **Findings About** observation class is a **subtype** of the Findings general observation class, specifically designed to record findings about events or interventions. It is implemented through the **FA (Findings About)** domain.\n\n### Key Differences from Standard Findings\n\n| Aspect | Standard Findings | Findings About |\n|--------|-------------------|----------------|\n| **Purpose** | Observations from planned evaluations (lab tests, ECG, questionnaires) | Findings about events or interventions that have already occurred |\n| **Unique Variable** | None | **--OBJ** (Object of the Observation) — a Record Qualifier that describes the event or intervention whose property is being measured |\n| **Topic Variables** | --TESTCD / --TEST | FATESTCD / FATEST (same structure) |\n| **Result Variables** | --ORRES, --STRESC, --STRESN | FAORRES, FASTRESC, FASTRESN (same structure) |\n| **Prohibited Qualifiers** | N/A | --BODSYS, --MODIFY, --SEV, --TOXGR should generally **not** be used |\n\n**[Source: model/02_observation_classes.md — §3.1.3 The Findings Observation Class]**\n\n### The --OBJ Variable\n\n| Attribute | Value |\n|-----------|-------|\n| **Label** | Object of the Observation |\n| **Type** | Char |\n| **Role** | Record Qualifier |\n| **Core** | Required for Findings About domains |\n| **Purpose** | Describes the event or intervention whose property is being measured in --TESTCD/--TEST |\n\nBoth **FATESTCD** and **FAOBJ** are required to be populated for every record. FATESTCD describes the measurement/evaluation, while FAOBJ describes the event or intervention that the measurement/evaluation is about.\n\n**[Source: model/02_observation_classes.md — §6.4.3 Variables Unique to Findings About]**\n\n### When to Use Findings About (3 Criteria)\n\n**Criterion 1:** Data or observations that have **different timing** from an associated event or intervention as a whole. For example, repeated assessments of intermittent symptoms at specific time points, where the parent event record has timing equal to the worst point in time.\n\n**Criterion 2:** An observation about an event or intervention which requires **more than 1 variable** for its representation, preventing its inclusion as a supplemental qualifier.\n\n**Criterion 3:** Data or information that indicate the **occurrence of pre-specified AEs**.\n\n**[Source: domains/FA/assumptions.md — §6.4.1 When to Use Findings About Events or Interventions]**\n\n### Example Usage\n\nWhen collected data fit a qualifier variable name, that name is used as the value of FATESTCD:\n\n| FATESTCD | FATEST | FAOBJ |\n|----------|--------|-------|\n| OCCUR | Occurrence Indicator | HEADACHE |\n| SEV | Severity/Intensity | HEADACHE |\n| TOXGR | Toxicity Grade | HEADACHE |\n\n**[Source: model/02_observation_classes.md — §6.4.3]**\n\n### Differentiation Guidance\n\nThe key distinction between Events and Findings About is determined by asking:\n\n| Question | Interpretation |\n|----------|----------------|\n| Is this a measurement, with units? | \"Yes\" → Finding. If about an event → Findings About |\n| What dates are collected? | Start/end dates → Event. Assessment dates → Finding |\n| Is verbatim text collected and coded? | Yes → Event (topic is coded). For Findings, the **result** is coded |\n| Does it apply to the event as a whole? | Yes → Event qualifier. No → Findings About (snapshot/slice) |\n\n**[Source: chapters/ch08_relationships.md — §8.6.3 Guidelines for Differentiating]**\n\n### Variable Order\n\nVariables in Findings About must follow the standard order: **Identifiers → Topic → Qualifier → Timing**. The --OBJ variable is placed immediately after the --TEST variable among Findings qualifiers.\n\n**[Source: chapters/ch04_general_assumptions.md — §4.1.4 Order of the Variables]**"
 },
 {
  "id": "q40",
  "category": "concept",
  "question": "What is the difference between collected data and derived data in SDTM, and how is the origin of a variable value indicated?",
  "expected_facts": [
   "Collected",
   "Derived",
   "Origin"
  ],
  "answer": "## Difference Between Collected Data and Derived Data in SDTM\n\n### Conceptual Distinction\n\n**Collected data** refers to values that are directly obtained from a source without transformation — typically from a CRF, a vendor, or a device. **Derived data** refers to values that are created through a computational or algorithmic process applied to other data.\n\nThe key distinction is that collected data should be traceable to an annotated CRF, while derived data should be traceable to a derivation algorithm. **[Source: chapters/ch04_general_assumptions.md — 4.1.8.1 Origin Metadata for Variables]**\n\n### How Origin Is Indicated\n\nThe origin of a variable value is indicated through the **Origin metadata element** in the Define-XML file. The purpose of this metadata is to \"unambiguously communicate to the reviewer the origin of the data source.\" **[Source: chapters/ch04_general_assumptions.md — 4.1.8.1 Origin Metadata for Variables]**\n\nAllowable origin values include (but are not limited to):\n- **Collected** — data obtained from a CRF, vendor, or device\n- **Derived** — data created through a derivation algorithm\n- **Assigned** — data assigned by the sponsor (e.g., STUDYID)\n\n### Special Cases and Nuances\n\n1. **Mixed origins within a single variable**: When both collected and derived values appear in the same variable (e.g., a QS dataset containing both individual item responses collected from the CRF and a derived total score), the origin must be described using **value-level metadata** in the Define-XML document, rather than a single origin value for the entire variable. **[Source: chapters/ch04_general_assumptions.md — 4.1.8.2 Origin Metadata for Records]**\n\n2. **Central lab / vendor data**: A value derived by a central lab according to its standard procedures is considered **collected** rather than derived for SDTM purposes. **[Source: domains/LB/assumptions.md — item_6]**\n\n3. **QRS (Questionnaire, Rating Scale) scores**: \n   - Subtotal/total scores listed on the CRF or documented in an instrument manual are considered **captured data** (collected)\n   - Scores received from a central provider or vendor go into `--ORRES` with `--DRVFL` null (treated as collected)\n   - Scores operationally derived by the sponsor must have `--DRVFL` set to \"Y\"\n   - Any imputations/calculations that transform numeric \"standardized responses\" to produce a total score are considered **ADaM derivations**, not SDTM derivations **[Source: domains/FT/assumptions.md — item_4; domains/QS/assumptions.md — item_4]**\n\n### Origin in SUPP-- Datasets\n\nIn Supplemental Qualifier datasets (SUPP--), the **QORIG** variable explicitly indicates the origin of each supplemental qualifier value. Permissible values include \"CRF\" (collected), \"Derived\", or \"Assigned\". This is necessary because QVAL can represent a mixture of collected, derived, or assigned items. **[Source: chapters/ch08_relationships.md — 8.4.1 Supplemental Qualifiers (SUPP--)]**\n\n### Summary Table\n\n| Aspect | Collected Data | Derived Data |\n|--------|---------------|--------------|\n| **Source** | CRF, vendor, device | Algorithm, computation |\n| **Traceability** | Annotated CRF | Derivation algorithm |\n| **Define-XML Origin** | \"Collected\" | \"Derived\" |\n| **Mixed in same variable?** | Use value-level metadata | Use value-level metadata |\n| **Central lab values** | Treated as collected | N/A |\n| **QRS total scores** | Captured (no flag) | Flagged with `--DRVFL = \"Y\"` |"
 },
 {
  "id": "q41",
  "category": "concept",
  "question": "What are the Trial Design Model datasets in SDTM and what kind of study-level information do they capture?",
  "expected_facts": [
   "Trial Design",
   "TA",
   "TE",
   "TV"
  ],
  "answer": "## Trial Design Model Datasets in SDTM\n\nThe SDTM includes **two types of study-level data**: trial design data and study reference data **[Source: model/05_study_level_data.md]**.\n\nThe **Trial Design Model (TDM)** provides a standardized way to describe the planned conduct of a clinical trial, as shown in study design diagrams and schedule of assessments tables required by ICH E3 **[Source: domains/TA/assumptions.md — §7.1.1]**.\n\n### Trial Design Datasets\n\nThe following datasets constitute the Trial Design Model:\n\n| Dataset | Name | Description |\n|---------|------|-------------|\n| **TA** | Trial Arms | Describes the planned paths through the trial (arms), divided into study cells for each epoch-arm combination. Each study cell represents an implementation of the epoch's purpose (e.g., treatment strategy). **[Source: domains/TA/assumptions.md — §7.1.2]** |\n| **TE** | Trial Elements | Defines reusable building blocks of trial time (e.g., screening, treatment, washout, follow-up). Elements are the fundamental time units that can be combined across arms and epochs. **[Source: domains/TE/examples.md]** |\n| **TV** | Trial Visits | Describes the planned visit schedule for the trial. |\n| **TD** | Trial Disease Assessments | Contains planned disease assessment schedules. |\n| **TM** | Trial Disease Milestones | Defines planned disease milestones (e.g., progression, response). |\n| **TI** | Trial Inclusion/Exclusion Criteria | Contains all inclusion and exclusion criteria for the trial — a tabular synopsis of the protocol's eligibility section. **[Source: domains/TI/assumptions.md]** |\n| **TS** | Trial Summary | Contains high-level characteristics of the trial (e.g., design type, control type, dose regimen, blinding, endpoints). Uses parameter-based structure with TSPARMCD/TSPARM (codelist C66738/C67152). **[Source: terminology/core/trial_design.md]** |\n\n### What Kind of Information They Capture\n\nThe Trial Design Model captures **planned (protocol-level)** information, not subject-level data:\n\n1. **Structural design**: How the trial is organized into arms, epochs, and elements (TA, TE)\n2. **Scheduled activities**: Planned visits and assessments (TV, TD)\n3. **Eligibility rules**: Inclusion/exclusion criteria (TI)\n4. **Milestones**: Planned disease milestones for response evaluation (TM)\n5. **Trial characteristics**: Design parameters, dosing, blinding, endpoints, and other protocol-level metadata (TS)\n\n### Purpose\n\nThe standard Trial Design datasets allow reviewers to:\n- Clearly and quickly grasp the design of a clinical trial\n- Compare designs of different trials\n- Search data warehouses for trials with certain features\n- Compare planned vs. actual treatments and visits for subjects **[Source: domains/TA/assumptions.md — §7.1.1]**\n\n### Relationship to Subject Data\n\nThe trial design datasets are **study-level** (not subject-level) datasets. They provide the reference framework against which subject-level data (e.g., SE for actual elements, SV for actual visits) can be compared. For example, TI contains all eligibility criteria, while the IE domain contains only criteria that subjects actually failed to meet **[Source: domains/TI/assumptions.md]**."
 },
 {
  "id": "q16",
  "category": "mixed",
  "question": "What values are allowed for AESEV and what is its codelist code?",
  "expected_facts": [
   "C66769",
   "MILD",
   "MODERATE",
   "SEVERE"
  ],
  "answer": "Based on the retrieved context, the variable **AESEV** (Severity/Intensity) in the Adverse Events domain uses the codelist **C66769** (Severity/Intensity Scale for Adverse Events).\n\nThe allowed values are:\n\n- **MILD** (Code C41338)\n- **MODERATE** (Code C41339)\n- **SEVERE** (Code C41340)\n\n**Source:** [domains/AE/spec.md] — AESEV definition (Controlled Terms: C66769)  \n**Source:** [terminology/core/ae.md] — Severity/Intensity Scale for Adverse Events (C66769) value list"
 },
 {
  "id": "q17",
  "category": "mixed",
  "question": "How are date and time variables formatted in SDTM and what suffix do they use?",
  "expected_facts": [
   "ISO 8601",
   "DTC"
  ],
  "answer": "## Date/Time Variable Format in SDTM\n\n### Format Standard\n\nSDTM date/time variables use the **ISO 8601 extended format** as character strings. The format pattern is:\n\n```\nYYYY-MM-DDThh:mm:ss(.n+)?(((+|-)hh:mm)|Z)?\n```\n\n**[Source: chapters/ch04_general_assumptions.md — 4.4.1 Formats for Date/Time Variables]**\n\n### Key Format Rules\n\n1. **Extended format required**: Hyphen delimiters for date components (`-`) and colon delimiters for time components (`:`) are mandatory. The ISO 8601 basic format (without delimiters) **must not** be used. **[Source: chapters/ch04_general_assumptions.md — 4.4.1]**\n\n2. **Character data type**: All date/time variables are stored as `Char` (character/text) data type. **[Source: chapters/ch04_general_assumptions.md — 4.4.1]**\n\n3. **No spaces allowed**: Spaces are not permitted in any ISO 8601 representations. **[Source: chapters/ch04_general_assumptions.md — 4.4.1]**\n\n4. **Precision handling**: Precision is inferred from the presence or absence of components. Missing components are represented by right truncation or a hyphen (for intermediate missing components). If completely missing, the field should be null. **[Source: chapters/ch04_general_assumptions.md — 4.4.2]**\n\n5. **Time designator**: When a date is stored with a time, the time is preceded with \"T\" (e.g., `2003-12-15T13:14:17`). If no time component is represented, the \"T\" designator must be omitted. **[Source: chapters/ch04_general_assumptions.md — 4.4.1, 4.4.2]**\n\n### Suffix Convention\n\nDate/time variables use the suffix **DTC** (Date/Time Character). The fragment \"DTC\" is the standard SDTM naming fragment for date/time character variables. **[Source: chapters/ch04_general_assumptions.md — 4.4.1]**\n\nExamples of DTC variables across domains:\n- **VSDTC** — Date/Time of Measurements (Vital Signs) — Role: Timing, Core: Exp **[Source: domains/VS/spec.md]**\n- **DMDTC** — Date/Time of Collection (Demographics) — Role: Timing, Core: Perm **[Source: domains/DM/spec.md]**\n- **SSDTC** — Date/Time of Assessment (Subject Status) — Role: Timing, Core: Exp **[Source: domains/SS/spec.md]**\n\n### Controlled Terms\n\nThe controlled terms for all DTC variables are specified as: **ISO 8601 datetime or interval** **[Source: domains/VS/spec.md, domains/DM/spec.md, domains/SS/spec.md]**\n\n### Summary\n\n| Aspect | Specification |\n|--------|--------------|\n| **Format** | ISO 8601 extended format (`YYYY-MM-DDThh:mm:ss`) |\n| **Data Type** | Character (Char) |\n| **Suffix** | `DTC` (Date/Time Character) |\n| **Role** | Timing |\n| **Controlled Terms** | ISO 8601 datetime or interval |\n| **Delimiters** | Hyphens for date, colons for time (extended format required) |"
 },
 {
  "id": "q18",
  "category": "mixed",
  "question": "Explain the MedDRA coding chain for adverse events from verbatim term to dictionary term.",
  "expected_facts": [
   "AETERM",
   "AEMODIFY",
   "AEDECOD",
   "Preferred Term"
  ],
  "answer": "## MedDRA Coding Chain for Adverse Events\n\nThe MedDRA coding chain for adverse events in SDTM traces the transformation from the raw collected term through progressively standardized dictionary levels. Based on the SDTMIG v3.4 specification, the chain is as follows:\n\n### 1. **AETERM** — Reported Term for the Adverse Event\n- **Label:** Reported Term for the Adverse Event\n- **Type:** Char\n- **Role:** Topic\n- **Core:** Req\n- **Controlled Terms:** (none)\n- **CDISC Notes:** Verbatim name of the event.\n- **[Source: domains/AE/spec.md]**\n\nThis is the raw, verbatim term as collected on the CRF. It is the topic variable for the AE dataset and must always have a value **[Source: domains/AE/assumptions.md, item 2a]**.\n\n### 2. **AEMODIFY** — Modified Reported Term (Optional)\n- **Label:** Modified Reported Term\n- **Type:** Char\n- **Role:** Synonym Qualifier\n- **Core:** Perm\n- **CDISC Notes:** (from assumptions) Should be included if the sponsor's procedure permits modification of a verbatim term for coding.\n- **[Source: domains/AE/assumptions.md, item 2b]**\n\nIf the sponsor's procedures allow, the verbatim term may be modified to aid in dictionary coding. For example, \"POUNDING HEADACHE\" might be modified to \"Headache\" before coding **[Source: domains/AE/examples.md, Example 1]**.\n\n### 3. **AEDECOD** — Dictionary-Derived Term (Preferred Term / PT)\n- **Label:** Dictionary-Derived Term\n- **Type:** Char\n- **Controlled Terms:** MedDRA\n- **Role:** Synonym Qualifier\n- **Core:** Req\n- **CDISC Notes:** Dictionary-derived text description of AETERM or AEMODIFY. Equivalent to the Preferred Term (PT in MedDRA).\n- **[Source: domains/AE/spec.md]**\n\nThis is the MedDRA Preferred Term (PT) assigned by the sponsor's coding process. It is a required variable and must have a value **[Source: domains/AE/assumptions.md, item 2c]**.\n\n### 4. **AELLT** — Lowest Level Term (Optional)\n- **Label:** Lowest Level Term\n- **Type:** Char\n- **Role:** Variable Qualifier\n- **Core:** Exp\n- **Controlled Terms:** MedDRA\n- **[Source: domains/AE/spec.md]**\n\nRepresents the MedDRA Lowest Level Term (LLT) text description. This is an expected variable when MedDRA is used **[Source: chapters/ch04_general_assumptions.md, §4.3.5]**.\n\n### 5. **AELLTCD** — Lowest Level Term Code (Optional)\n- **Label:** Lowest Level Term Code\n- **Type:** Num\n- **Role:** Variable Qualifier\n- **Core:** Exp\n- **Controlled Terms:** MedDRA\n- **CDISC Notes:** Dictionary-derived code for the lowest level term.\n- **[Source: domains/AE/spec.md]**\n\n### 6. **AEPTCD** — Preferred Term Code (Optional)\n- **Label:** Preferred Term Code\n- **Type:** Num\n- **Role:** Variable Qualifier\n- **Core:** Exp\n- **Controlled Terms:** MedDRA\n- **CDISC Notes:** Dictionary-derived code for the preferred term.\n- **[Source: domains/AE/spec.md]**\n\n### 7. **AEHLT** — High Level Term (Optional)\n- **Label:** High Level Term\n- **Type:** Char\n- **Role:** Variable Qualifier\n- **Core:** Exp\n- **Controlled Terms:** MedDRA\n- **[Source: domains/AE/spec.md]**\n\n### 8. **AEHLTCD** — High Level Term Code (Optional)\n- **Label:** High Level Term Code\n- **Type:** Num\n- **Role:** Variable Qualifier\n- **Core:** Exp\n- **Controlled Terms:** MedDRA\n- **CDISC Notes:** Dictionary-derived code for the high level term for the primary SOC.\n- **[Source: domains/AE/spec.md]**\n\n### 9. **AEHLGT** — High Level Group Term (Optional)\n- **Label:** High Level Group Term\n- **Type:** Char\n- **Role:** Variable Qualifier\n- **Core:** Exp\n- **Controlled Terms:** MedDRA\n- **[Source: domains/AE/spec.md]**\n\n### 10. **AEHLGTCD** — High Level Group Term Code (Optional)\n- **Label:** High Level Group Term Code\n- **Type:** Num\n- **Role:** Variable Qualifier\n- **Core:** Exp\n- **Controlled Terms:** MedDRA\n- **[Source: domains/AE/spec.md]**\n\n### 11. **AEBODSYS** — Body System or Organ Class (SOC for Analysis)\n- **Label:** Body System or Organ Class\n- **Type:** Char\n- **Role:** Record Qualifier\n- **Core:** Exp\n- **CDISC Notes:** (from assumptions) The system organ class (SOC) from the coding dictionary associated with the adverse event by the sponsor. This value may differ from the primary SOC.\n- **[Source: domains/AE/assumptions.md, item 2d]**\n\n### 12. **AEBDSYCD** — Body System or Organ Class Code (Optional)\n- **Label:** Body System or Organ Class Code\n- **Type:** Num\n- **Role:** Variable Qualifier\n- **Core:** Exp\n- **Controlled Terms:** MedDRA\n- **[Source: domains/AE/spec.md]**\n\n### 13. **AESOC** — Primary System Organ Class (Optional)\n- **Label:** Primary System Organ Class\n- **Type:** Char\n- **Role:** Variable Qualifier\n- **Core:** Exp\n- **Controlled Terms:** MedDRA\n- **CDISC Notes:** (from general assumptions) Populate with the dictionary-derived primary SOC. In cases where the primary SOC was used for analysis, --BODSYS and --SOC are the same.\n- **[Source: chapters/ch04_general_assumptions.md, §4.3.5]**\n\n### 14. **AESOCCD** — Primary System Organ Class Code (Optional)\n- **Label:** Primary System Organ Class Code\n- **Type:** Num\n- **Role:** Variable Qualifier\n- **Core:** Exp\n- **Controlled Terms:** MedDRA\n- **[Source: domains/AE/spec.md]**\n\n---\n\n## Summary of the Coding Chain\n\nThe complete MedDRA hierarchy from most granular to highest level is:\n\n```\nAETERM (verbatim) \n  → AEMODIFY (optional modification)\n    → AELLT / AELLTCD (Lowest Level Term)\n      → AEDECOD / AEPTCD (Preferred Term) ← Required\n        → AEHLT / AEHLTCD (High Level Term)\n          → AEHLGT / AEHLGTCD (High Level Group Term)\n            → AEBODSYS / AEBDSYCD (SOC for analysis) ← Expected\n            → AESOC / AESOCCD (Primary SOC)\n```\n\n**Key rules:**\n- AETERM and AEDECOD are **required** (must have values) **[Source: domains/AE/spec.md]**\n- AEBODSYS is **expected** to be populated **[Source: domains/AE/assumptions.md, item 2d]**\n- The intermediate levels (LLT, HLT, HLGT) and their codes are **expected** when MedDRA is used **[Source: chapters/ch04_general_assumptions.md, §4.3.5]**\n- The sponsor must provide the dictionary name and version in Define-XML using the external codelist element **[Source: domains/AE/spec.md, AEDECOD notes]**\n- AEBODSYS represents the SOC used for the sponsor's analysis, which may differ from the primary SOC in AESOC **[Source: chapters/ch04_general_assumptions.md, §4.3.5]**"
 },
 {
  "id": "q19",
  "category": "mixed",
  "question": "What controlled terminology codelist is used for DSDECOD when DSCAT equals 'DISPOSITION EVENT', and list specific CDISC Submission Values from that codelist for reasons of non-completion.",
  "expected_facts": [
   "NCOMPLT",
   "C66727"
  ],
  "answer": "Based on the retrieved context, when `DSCAT` equals `\"DISPOSITION EVENT\"`, the controlled terminology codelist used for `DSDECOD` is **C66727 (Completion/Reason for Non-Completion)**.\n\n**[Source: domains/DS/spec.md — DSDECOD]**  \n**[Source: domains/DS/assumptions.md — item_3.b]**\n\nThe context does not provide the full list of CDISC Submission Values from the C66727 codelist for reasons of non-completion. However, based on the assumptions, the following specific values are mentioned:\n\n- **COMPLETED** — Used when `DSTERM = \"COMPLETED\"`.  \n  **[Source: domains/DS/assumptions.md — item_3.b.i]**\n- **LOST TO FOLLOW-UP** — Used when a subject did not complete (e.g., `DSTERM = \"Subject moved\"`).  \n  **[Source: domains/DS/assumptions.md — item_3.b.ii]**\n\nFor the complete list of CDISC Submission Values in the C66727 codelist, you would need to consult the published CDISC Controlled Terminology for the NCOMPLT codelist, which is referenced in the DS Codetable at [https://www.cdisc.org/standards/terminology/controlled-terminology](https://www.cdisc.org/standards/terminology/controlled-terminology).  \n**[Source: domains/DS/assumptions.md — item_4.f]**"
 },
 {
  "id": "q20",
  "category": "mixed",
  "question": "In the DM domain, what is the difference between the RFSTDTC/RFENDTC reference period pair and the RFXSTDTC/RFXENDTC pair, and under what circumstances will RFSTDTC be null?",
  "expected_facts": [
   "sponsor-defined",
   "screen failure"
  ],
  "answer": "## Difference Between RFSTDTC/RFENDTC and RFXSTDTC/RFXENDTC\n\n### 1. Definition and Purpose\n\n**RFSTDTC / RFENDTC (Subject Reference Start/End Date/Time)**\n- **Label:** Subject Reference Start/End Date/Time\n- **Type:** DateTime\n- **Role:** Record Qualifier\n- **Core:** Expected\n- **Controlled Terms:** ISO 8601 datetime or interval\n- **CDISC Notes:** RFSTDTC is \"usually equivalent to date/time when subject was first exposed to study treatment.\" RFENDTC is \"usually equivalent to the date/time when subject was determined to have ended the trial, and often equivalent to date/time of last exposure to study treatment.\" **[Source: domains/DM/spec.md — RFSTDTC, RFENDTC]**\n\n**RFXSTDTC / RFXENDTC (Date/Time of First/Last Study Treatment)**\n- **Label:** Date/Time of First/Last Study Treatment\n- **Type:** Char\n- **Role:** Record Qualifier\n- **Core:** Expected\n- **Controlled Terms:** ISO 8601 datetime or interval\n- **CDISC Notes:** RFXSTDTC is \"equal to the earliest value of EXSTDTC.\" RFXENDTC is \"equal to the latest value of EXENDTC (or the latest value of EXSTDTC if EXENDTC was not collected or is missing).\" **[Source: domains/DM/spec.md — RFXSTDTC, RFXENDTC]**\n\n### 2. Key Differences\n\nPer the DM assumptions:\n\n| Aspect | RFSTDTC/RFENDTC | RFXSTDTC/RFXENDTC |\n|--------|-----------------|-------------------|\n| **Definition** | Sponsor-defined; usually first/last study exposure, but **open to customization** | **Always** represents first/last study exposure; **not open to customization** |\n| **Flexibility** | May be enrollment date, date of screening procedure (e.g., biopsy), or other protocol milestone | Fixed — always the earliest/latest EX exposure dates |\n| **Use in Study Day** | Used to calculate all study day variables (--DY) | Not used for study day calculation |\n| **Relationship to SE** | Not directly linked | RFXSTDTC should equal SESTDTC for the first treatment element; RFXENDTC may equal SEENDTC for the last treatment element |\n\n**[Source: domains/DM/assumptions.md — item_10a, 10b]**\n\n### 3. When RFSTDTC Will Be Null\n\nRFSTDTC will be null for subjects who are **not exposed to study treatment**, specifically:\n\n- **Screen failures** (ARMNRS = \"SCREEN FAILURE\")\n- **Subjects enrolled but not assigned to an arm** (ARMNRS = \"NOT ASSIGNED\")\n- **Subjects randomized but not treated** (ARMNRS = \"NOT TREATED\")\n\n**[Source: domains/DM/assumptions.md — item_9]**\n\nThe rationale is that for most interventional studies, RFSTDTC is defined as the date of first exposure to study drug. When no exposure occurs, there is no valid value for RFSTDTC. However, for non-interventional or observational studies, or studies with no-treatment arms, a different protocol milestone may be chosen as RFSTDTC, in which case it would not be null for untreated subjects. **[Source: domains/DM/assumptions.md — item_9]**\n\n### 4. Additional Reference Period Pairs\n\nThe DM domain contains four reference period pairs, each serving a distinct purpose:\n\n| Pair | Purpose |\n|------|---------|\n| **RFSTDTC/RFENDTC** | Sponsor-defined reference period (usually first/last exposure, but customizable) |\n| **RFXSTDTC/RFXENDTC** | **Always** first/last study treatment exposure (guarantees reviewer can find this) |\n| **RFCSTDTC/RFCENDTC** | First/last exposure to a **challenge agent** (if used) |\n| **RFICDTC/RFPENDTC** | Entire period from **informed consent** through **end of participation** |\n\n**[Source: domains/DM/assumptions.md — item_10a-10d]**\n\n### 5. Role Clarification\n\nAll six variables (RFSTDTC, RFENDTC, RFXSTDTC, RFXENDTC, RFCSTDTC, RFCENDTC, RFICDTC, RFPENDTC, DTHDTC, BRTHDTC) are classified as **Record Qualifiers**, not Timing variables, because \"they are not intended for use in the general observation classes.\" **[Source: domains/DM/assumptions.md — item_7]**"
 },
 {
  "id": "q42",
  "category": "mixed",
  "question": "In the LB domain, how are normal ranges represented using LBORNRLO and LBORNRHI, and what is the LBNRIND variable used for?",
  "expected_facts": [
   "LBORNRLO",
   "LBORNRHI",
   "LBNRIND"
  ],
  "answer": "Based on the provided context, here is how normal ranges are represented in the LB domain:\n\n## LBORNRLO and LBORNRHI\n\n- **LBORNRLO** (Reference Range Lower Limit in Orig Unit): Represents the lower end of the reference range for continuous measurements in original units. It is a Character type, Variable Qualifier role, with Expected core. It should only be populated for continuous results. **[Source: domains/LB/spec.md -- LBORNRLO]**\n\n- **LBORNRHI** (Reference Range Upper Limit in Orig Unit): Represents the upper end of the reference range for continuous measurements in original units. It is a Character type, Variable Qualifier role, with Expected core. It should only be populated for continuous results. **[Source: domains/LB/spec.md -- LBORNRHI]**\n\n**Key rule:** For lab tests that do not have continuous numeric results (e.g., urine protein by dipstick, descriptive tests like urine color), LBORNRLO and LBORNRHI should be null. For such tests, LBSTNRC (Reference Range for Char Rslt-Std Units) should be used instead. **[Source: domains/LB/assumptions.md -- item_2]**\n\n## LBNRIND (Reference Range Indicator)\n\n- **Label:** Reference Range Indicator\n- **Type:** Char\n- **Controlled Terms:** C78736\n- **Role:** Variable Qualifier\n- **Core:** Expected\n- **CDISC Notes:** Indicates where the value falls with respect to the reference range defined by LBORNRLO and LBORNRHI, LBSTNRLO and LBSTNRHI, or by LBSTNRC. Examples include \"NORMAL\", \"ABNORMAL\", \"HIGH\", \"LOW\". **[Source: domains/LB/spec.md -- LBNRIND]**\n\n**Usage rules:**\n1. Sponsors should specify in the study metadata (Comments column in Define-XML) whether LBNRIND refers to the original or standard reference ranges and results. **[Source: domains/LB/spec.md -- LBNRIND]**\n2. LBNRIND is **not** used to indicate clinical significance. Clinical significance is represented separately in LBCLSIG. **[Source: domains/LB/spec.md -- LBNRIND; domains/LB/assumptions.md -- item_3]**\n3. If toxicity grading is available, those values are represented in LBTOX and LBTOXGR, not in LBNRIND. **[Source: domains/LB/assumptions.md -- item_3]**\n\n## Summary of Relationship\n\nThe three variables work together as follows:\n- **LBORNRLO/LBORNRHI** define the normal range boundaries in original units (for continuous results)\n- **LBSTNRLO/LBSTNRHI** define the normal range boundaries in standardized units (for continuous results)\n- **LBSTNRC** defines the normal range for character/ordinal results\n- **LBNRIND** provides a categorical indicator of where the result falls relative to whichever reference range is applicable (e.g., \"HIGH\", \"LOW\", \"NORMAL\", \"ABNORMAL\")"
 },
 {
  "id": "q43",
  "category": "mixed",
  "question": "What is the controlled terminology codelist for the SEX variable in the DM domain? Provide the codelist code and describe the Core designation.",
  "expected_facts": [
   "SEX",
   "C66731",
   "Req"
  ],
  "answer": "Based on the retrieved context, the controlled terminology codelist for the **SEX** variable in the **DM** domain is **C66731**.\n\n### Details\n\n- **Codelist Code:** C66731\n- **Codelist Name:** Sex\n- **Extensible:** No (meaning only the values listed in the codelist are permitted)\n- **Permitted Values:**\n    - **F** (Female)\n    - **M** (Male)\n    - **U** (Unknown)\n    - **UNDIFFERENTIATED**\n\n### Core Designation\n\nThe **Core** designation for the SEX variable is **Req** (Required). This means that the variable must be populated for every record in the DM domain.\n\n**Sources:**\n- **[Source: domains/DM/spec.md]** — SEX variable definition: Label (Sex), Type (Char), Controlled Terms (C66731), Role (Record Qualifier), Core (Req).\n- **[Source: terminology/core/dm.md]** — Sex (C66731) codelist with all permitted values (F, M, U, UNDIFFERENTIATED) and definitions."
 },
 {
  "id": "q44",
  "category": "mixed",
  "question": "In the VS domain, what is the controlled terminology codelist code for VSTESTCD, and give examples of standard vital signs test codes like systolic and diastolic blood pressure.",
  "expected_facts": [
   "C66741",
   "SYSBP",
   "DIABP"
  ],
  "answer": "Based on the retrieved context, here is the information for the VS domain:\n\n**VSTESTCD Controlled Terminology Codelist Code:** C66741 **[Source: domains/VS/spec.md]**\n\n**Examples of Standard Vital Signs Test Codes:**\n- **SYSBP** — Systolic Blood Pressure **[Source: terminology/core/vs.md]**\n- **DIABP** — Diastolic Blood Pressure **[Source: terminology/core/vs.md]**\n- **BMI** — Body Mass Index **[Source: terminology/core/vs.md]**\n- **PULSE** — Pulse Rate (implied from example data) **[Source: domains/VS/examples.md]**\n- **TEMP** — Temperature (implied from example data) **[Source: domains/VS/examples.md]**\n- **WEIGHT** — Weight (implied from example data) **[Source: domains/VS/examples.md]**\n- **HEIGHT** — Height (implied from example data) **[Source: domains/VS/examples.md]**\n\n**Variable Definition for VSTESTCD:**\n- **Label:** Vital Signs Test Short Name\n- **Type:** Char\n- **Role:** Topic\n- **Core:** Req\n- **Controlled Terms:** C66741 (Extensible: Yes)\n- **CDISC Notes:** Short name of the measurement, test, or examination described in VSTEST. It can be used as a column name when converting a dataset from a vertical to a horizontal format. The value in VSTESTCD cannot be longer than 8 characters, nor can it start with a number (e.g., \"1TEST\" is not valid). VSTESTCD cannot contain characters other than letters, numbers, or underscores. **[Source: domains/VS/spec.md]**"
 },
 {
  "id": "q45",
  "category": "mixed",
  "question": "What is the RACE variable in the DM domain, what codelist does it use, and what is its Core designation?",
  "expected_facts": [
   "RACE",
   "C74457",
   "Exp"
  ],
  "answer": "Based on the retrieved context, here is the information for the RACE variable in the DM domain:\n\n- **Label:** Race\n- **Type:** Char\n- **Controlled Terms:** C74457\n- **Role:** Record Qualifier\n- **Core:** Exp (Expected)\n- **CDISC Notes:** Race of the subject. Sponsors should refer to the FDA guidance regarding the collection of race. See assumption below regarding RACE.\n\n**[Source: domains/DM/spec.md]**\n\nThe codelist used is **C74457 (Race)**. It is non-extensible and includes the following permissible values: AMERICAN INDIAN OR ALASKA NATIVE, ASIAN, BLACK OR AFRICAN AMERICAN, NATIVE HAWAIIAN OR OTHER PACIFIC ISLANDER, NOT REPORTED, OTHER, UNKNOWN, and WHITE.\n\n**[Source: terminology/core/dm.md]**\n\n**Additional Business Rules:**\n- If multiple races are collected, the value of RACE should be \"MULTIPLE\", and the additional information is stored in the SUPPDM dataset.\n- If a primary race is designated among multiple collected races, RACE in DM should be the primary race.\n- If race was collected via an \"Other, Specify\" field and the sponsor chooses not to map the value per FDA guidance, the value of RACE should be \"OTHER\".\n- For subjects who refuse to provide or do not know their race, the value of RACE could be \"UNKNOWN\".\n\n**[Source: domains/DM/assumptions.md]**"
 },
 {
  "id": "q46",
  "category": "mixed",
  "question": "What is the AEOUT (Outcome of Adverse Event) variable in the AE domain and what controlled terminology codelist code does it use?",
  "expected_facts": [
   "AEOUT",
   "C66768",
   "Perm"
  ],
  "answer": "## AEOUT — Outcome of Adverse Event\n\n### Variable Definition\n\n| Attribute | Value |\n|-----------|-------|\n| **Label** | Outcome of Adverse Event |\n| **Type** | Char |\n| **Role** | Record Qualifier |\n| **Core** | Perm |\n| **Controlled Terms** | C66768 |\n| **CDISC Notes** | Description of the outcome of an event. |\n\n**[Source: domains/AE/spec.md — AEOUT]**\n\n### Controlled Terminology (C66768 — \"Outcome of Event\")\n\nThe codelist is **non-extensible** and contains the following 6 permitted values:\n\n| Code | Submission Value | Definition |\n|------|-----------------|------------|\n| C48275 | FATAL | The termination of life as a result of an adverse event. |\n| C49494 | NOT RECOVERED/NOT RESOLVED | The event has not improved or recuperated. |\n| C49495 | RECOVERED/RESOLVED WITH SEQUELAE | The subject recuperated but retained pathological conditions resulting from the prior disease or injury. |\n| C49498 | RECOVERED/RESOLVED | The event has improved or recuperated. |\n| C49496 | RECOVERING/RESOLVING | The event is improving. |\n| C17998 | UNKNOWN | Not known, not observed, not recorded, or refused. |\n\n**[Source: terminology/core/ae.md — Outcome of Event (C66768)]**\n\n### Usage Notes\n\n- AEOUT is a **permissible** variable in the AE domain, meaning it may be populated when the outcome data are collected **[Source: domains/AE/spec.md — AEOUT]**.\n- In practice, AEOUT is commonly populated in AE datasets. For example, in the AE examples, values such as `RECOVERED/RESOLVED`, `RECOVERING/RESOLVING`, and `FATAL` appear **[Source: domains/AE/examples.md — Example 1, Example 6]**.\n- The DD (Death Details) domain notes that AEOUT is a standard variable in AE and is not intended to be duplicated in DD; rather, DD data can be linked to AE via RELREC **[Source: domains/DD/assumptions.md — item_2]**.\n- The codelist code **C66768** is referenced in the AE domain's Controlled Terminology section under \"Outcome of Event (C66768)\" **[Source: domains/AE/spec.md — Controlled Terminology]**."
 },
 {
  "id": "q47",
  "category": "mixed",
  "question": "How do QS (Questionnaires) domains handle instrument-specific variables using QSCAT, and what role does QSTESTCD play in organizing question-level data?",
  "expected_facts": [
   "QSTESTCD",
   "QSCAT",
   "Topic"
  ],
  "answer": "Based on the retrieved context, the QS (Questionnaires) domain handles instrument-specific variables and organizes question-level data through a structured use of **QSCAT** as a grouping qualifier and **QSTESTCD** as the topic variable.\n\n## QSCAT: Instrument-Level Grouping\n\n**QSCAT** (Category of Question) serves as the primary mechanism for identifying which questionnaire instrument a set of questions belongs to.\n\n- **Label:** Category of Question\n- **Type:** Char\n- **Role:** Grouping Qualifier\n- **Core:** Required\n- **Controlled Terms:** C100129\n\n**[Source: domains/QS/spec.md]**\n\n**CDISC Notes:** QSCAT is used to specify the questionnaire in which the question identified by QSTEST and QSTESTCD was included. Examples include \"ADAS-COG\" and \"MDS-UPDRS\". **[Source: domains/QS/spec.md]**\n\n**Key behaviors:**\n1. **Instrument identification:** QSCAT holds the name of the QRS instrument (e.g., \"ADAS-COG\", \"BPI SHORT FORM\", \"APACHE II\"). These values may be abbreviations or longer names. **[Source: domains/QS/assumptions.md, item_1]**\n2. **Domain splitting:** When a QS domain is split into separate datasets (e.g., QS36 for SF-36), the split is based on values in QSCAT. When split on QSCAT, QSCAT must not be null. **[Source: chapters/ch04_general_assumptions.md, §4.1.7]**\n3. **Supplemental qualifier linkage:** QSCAT can serve as the IDVAR in SUPPQUAL datasets to link supplemental variables (e.g., QSLANG for questionnaire language) to all records for a specific instrument for a subject. **[Source: domains/SUPPQUAL/examples.md, Example 2; chapters/ch08_relationships.md, §8.4.3 Example 2]**\n\n## QSTESTCD: Question-Level Organization\n\n**QSTESTCD** (Question Short Name) is the topic variable that uniquely identifies each individual question within a questionnaire.\n\n- **Label:** Question Short Name\n- **Type:** Char\n- **Role:** Topic\n- **Core:** Required\n- **Controlled Terms:** Published separately per questionnaire\n\n**[Source: domains/QS/spec.md]**\n\n**CDISC Notes:**\n- QSTESTCD is the short name for the value in QSTEST, usable as a column name when converting from vertical to horizontal format.\n- Cannot exceed 8 characters, cannot start with a number, and cannot contain characters other than letters, numbers, or underscores.\n- Controlled terminology for QSTESTCD is published in separate codelists for each questionnaire (e.g., \"ADCCMD01\", \"BPR0103\"). **[Source: domains/QS/spec.md]**\n\n**Key behaviors:**\n1. **Question-level granularity:** Each distinct question within a questionnaire gets its own QSTESTCD value, enabling one-record-per-question structure in the QS domain.\n2. **Instrument-specific terminology:** QRS --TESTCD/--TEST terminology codelists are listed separately by instrument name. **[Source: domains/QS/assumptions.md, item_1c]**\n3. **Standardized naming:** The QRS Naming Rules for --CAT, --TEST, and --TESTCD are published by CDISC and available at the CDISC Controlled Terminology website. **[Source: domains/QS/assumptions.md, item_1a]**\n\n## How They Work Together\n\nThe relationship between QSCAT and QSTESTCD creates a two-level hierarchy:\n\n| Level | Variable | Role | Example Value |\n|-------|----------|------|---------------|\n| Instrument | QSCAT | Grouping Qualifier | \"ADAS-COG\" |\n| Question | QSTESTCD | Topic | \"ADCCMD01\" |\n| Question Text | QSTEST | Synonym Qualifier | \"Did you have difficulty remembering...?\" |\n\nThis structure allows:\n- **Filtering:** All questions from a specific instrument can be identified by QSCAT value\n- **Splitting:** Domains can be physically split by QSCAT into separate datasets (e.g., QS36, QSADAS)\n- **Supplemental linking:** Instrument-level supplemental data (like language version) can be linked via QSCAT as IDVAR\n- **Standardized representation:** Each question has a unique, controlled QSTESTCD that is consistent across studies for the same instrument"
 },
 {
  "id": "q48",
  "category": "mixed",
  "question": "What is the FATESTCD variable's controlled terminology codelist code in the FA domain, and give examples of standard FA test codes?",
  "expected_facts": [
   "FATESTCD",
   "C101832"
  ],
  "answer": "Based on the retrieved context, the FATESTCD variable in the FA domain uses the controlled terminology codelist code **C101832** (Findings About Test Code).\n\n**Examples of standard FA test codes** include:\n- **SEV** — Severity/Intensity\n- **OCCUR** — Occurrence Indicator\n- **TOXGR** — Toxicity Grade\n\n**[Source: domains/FA/spec.md — FATESTCD, Controlled Terminology; domains/FA/assumptions.md — item_4; chapters/ch04_general_assumptions.md — 4.3.1]**"
 },
 {
  "id": "s01",
  "category": "single_domain",
  "question": "In the DM domain, what is the controlled terminology codelist code for the SEX variable, and what are its four permitted submission values?",
  "expected_facts": [
   "C66731",
   "F",
   "M",
   "U",
   "UNDIFFERENTIATED"
  ],
  "answer": "Based on the retrieved context, the controlled terminology codelist code for the **SEX** variable in the DM domain is **C66731**, and its four permitted submission values are **F**, **M**, **U**, and **UNDIFFERENTIATED**.\n\n**Details:**\n\n- **Codelist Code:** C66731 (Sex) [Source: domains/DM/spec.md]\n- **Extensible:** No [Source: terminology/core/dm.md]\n- **Permitted Submission Values:**\n  - **F** (Female) — A person who belongs to the sex that normally produces ova. [Source: terminology/core/dm.md]\n  - **M** (Male) — A person who belongs to the sex that normally produces sperm. [Source: terminology/core/dm.md]\n  - **U** (Unknown) — Not known, not observed, not recorded, or refused. [Source: terminology/core/dm.md]\n  - **UNDIFFERENTIATED** — A person born with genitalia and/or secondary sexual characteristics of indeterminate sex, or which combine features of both sexes. [Source: terminology/core/dm.md]\n\n**Variable Definition (SEX in DM):**\n- **Label:** Sex\n- **Type:** Char\n- **Role:** Record Qualifier\n- **Core:** Req\n- **CDISC Notes:** Sex of the subject. [Source: domains/DM/spec.md]"
 },
 {
  "id": "s02",
  "category": "concept",
  "question": "What is the SUPPQUAL variable QNAM and what character constraints apply to it? What is the maximum length and what characters are allowed?",
  "expected_facts": [
   "QNAM",
   "8 characters",
   "letters, numbers, or underscores",
   "cannot start with a number",
   "Qualifier Variable Name"
  ],
  "answer": "## QNAM Variable Definition\n\n**QNAM** (Qualifier Variable Name) is a required variable in the SUPPQUAL (Supplemental Qualifiers) dataset with the following attributes:\n\n| Attribute | Value |\n|-----------|-------|\n| **Label** | Qualifier Variable Name |\n| **Type** | Char |\n| **Role** | Topic |\n| **Core** | Req |\n| **Controlled Terms** | None (but subject to naming conventions) |\n\n**[Source: domains/SUPPQUAL/spec.md]**\n\n## Character Constraints\n\nQNAM is subject to the following constraints:\n\n### Maximum Length\n- **8 characters maximum** — QNAM cannot be longer than 8 characters\n\n**[Source: domains/SUPPQUAL/spec.md]**\n\n### Allowed Characters\n- **Letters** (A-Z, a-z)\n- **Numbers** (0-9)\n- **Underscores** (_)\n\n### Prohibited Characters\n- **Cannot start with a number** (e.g., \"1TEST\" is not valid)\n- **Cannot contain characters other than letters, numbers, or underscores** (e.g., hyphens, spaces, special characters are not allowed)\n\n**[Source: domains/SUPPQUAL/spec.md]**\n\n## Rationale\n\nThese restrictions exist because QNAM serves the same purpose as `--TESTCD` within supplemental qualifier datasets — it is used as a column name when a domain view is transposed to a more horizontal format. Therefore, QNAM values are subject to the same restrictions as `--TESTCD` values to ensure compatibility with SAS V5 transport file format requirements.\n\n**[Source: chapters/ch04_general_assumptions.md §4.2.1]**\n\n## Additional Notes\n\n- QNAM will often be the column name from the sponsor's operational dataset\n- When splitting text strings longer than 200 characters, the first QNAM should describe the NSV without any numeric suffix; subsequent QNAMs for additional text should append a sequential 1-digit integer (beginning with 1) to the original variable name\n- When a standard domain variable name is already 8 characters, the last character should be replaced with a digit when creating QNAM values for long text splitting\n\n**[Source: chapters/ch04_general_assumptions.md §4.5.3.2]**"
 },
 {
  "id": "s03",
  "category": "cross_domain",
  "question": "The DM variable RFXSTDTC is defined as equal to the earliest value of which variable in the EX domain? Similarly, RFXENDTC is equal to the latest value of which EX variable (or which fallback variable if that is not collected)?",
  "expected_facts": [
   "EXSTDTC",
   "RFXSTDTC",
   "EXENDTC",
   "RFXENDTC",
   "earliest",
   "latest"
  ],
  "answer": "Based on the retrieved context, the answer is as follows:\n\n**RFXSTDTC** is defined as equal to the earliest value of **EXSTDTC** in the EX domain. **[Source: domains/DM/spec.md -- RFXSTDTC]**\n\n**RFXENDTC** is defined as equal to the latest value of **EXENDTC** in the EX domain. If EXENDTC was not collected or is missing, the fallback is the latest value of **EXSTDTC**. **[Source: domains/DM/spec.md -- RFXENDTC]**"
 },
 {
  "id": "s04",
  "category": "mixed",
  "question": "In the AE domain, what is the controlled terminology codelist code for the AEACN (Action Taken with Study Treatment) variable, and what ICH E2B example values does the CDISC Notes field list for this variable?",
  "expected_facts": [
   "C66767",
   "DRUG WITHDRAWN",
   "DOSE REDUCED",
   "DOSE INCREASED",
   "DOSE NOT CHANGED",
   "UNKNOWN",
   "NOT APPLICABLE"
  ],
  "answer": "Based on the retrieved context, the controlled terminology codelist code for the AEACN (Action Taken with Study Treatment) variable is **C66767** [Source: domains/AE/spec.md].\n\nThe CDISC Notes field lists the following ICH E2B example values for AEACN:\n- \"DRUG WITHDRAWN\"\n- \"DOSE REDUCED\"\n- \"DOSE INCREASED\"\n- \"DOSE NOT CHANGED\"\n- \"UNKNOWN\"\n- \"NOT APPLICABLE\"\n\n[Source: domains/AE/spec.md]"
 },
 {
  "id": "s05",
  "category": "single_domain",
  "question": "In the VS domain, what is the controlled terminology codelist code for the VSTESTCD variable? Name the codelist, state whether it is extensible, and give three example TESTCD values listed for blood pressure and heart rate.",
  "expected_facts": [
   "C66741",
   "Vital Signs Test Code",
   "Extensible: Yes",
   "SYSBP",
   "DIABP",
   "HR"
  ],
  "answer": "Based on the retrieved context, the controlled terminology codelist code for the VSTESTCD variable is **C66741**.\n\n- **Codelist Name:** Vital Signs Test Code **[Source: domains/VS/spec.md]**\n- **Extensible:** The context does not explicitly state whether C66741 is extensible. However, the related codelist for units (C66770) is explicitly marked as \"Extensible: Yes\" **[Source: terminology/core/vs.md]**. For C66741, you would need to check the specific terminology file (`terminology/core/vs.md`) for this attribute.\n- **Example TESTCD values for blood pressure and heart rate:**\n    - **SYSBP** (Systolic Blood Pressure) **[Source: domains/VS/spec.md — VSTESTCD]**\n    - **DIABP** (Diastolic Blood Pressure) **[Source: domains/VS/spec.md — VSTESTCD]**\n    - **PULSE** (Pulse Rate) **[Source: domains/VS/examples.md — Example 1]**"
 },
 {
  "id": "q54",
  "category": "single_domain",
  "question": "In the DV (Protocol Deviations) domain, which observation class does it belong to and what is the Topic variable DVTERM?",
  "expected_facts": [
   "Events",
   "DVTERM",
   "Protocol Deviation Term",
   "Topic"
  ],
  "answer": "Based on the retrieved context, the DV (Protocol Deviations) domain belongs to the **Events** observation class, and the Topic variable **DVTERM** is defined as follows:\n\n## Observation Class\n\nDV is an **Events** domain. This is explicitly stated in the domain assumptions:\n\n> \"The DV domain is an Events model for collected protocol deviations...\" **[Source: domains/DV/assumptions.md — item_1]**\n\nThis is also confirmed in the variable index, which lists DV under \"DV — Protocol Deviations (Events)\" **[Source: VARIABLE_INDEX.md — DV — Protocol Deviations (Events)]**.\n\n## DVTERM Variable Definition\n\n| Attribute | Value |\n|-----------|-------|\n| **Label** | Protocol Deviation Term |\n| **Type** | Char |\n| **Role** | Topic |\n| **Core** | Req |\n| **Controlled Terms** | (none — free text) |\n\n**[Source: domains/DV/spec.md — DVTERM]**\n\n### CDISC Notes\n\n> \"Verbatim name of the protocol deviation criterion. Example: 'IVRS PROCESS DEVIATION - NO DOSE CALL PERFORMED'. DVTERM values will map to the controlled terminology in DVDECOD (e.g., 'TREATMENT DEVIATION').\" **[Source: domains/DV/spec.md — DVTERM]**\n\n### Key Characteristics\n\n1. **Topic Variable Role**: As the topic variable for an Events domain, DVTERM stores the verbatim (free text) name of the protocol deviation. This aligns with the general SDTM model where \"--TERM\" is the topic variable for Events domains **[Source: chapters/ch04_general_assumptions.md — 4.3.6 Storing Topic Variables for General Domain Models]**.\n\n2. **Free Text vs. Coded**: DVTERM contains the original collected text (e.g., \"IVRS PROCESS DEVIATION - NO DOSE CALL PERFORMED\"), while the coded/standardized version is stored in **DVDECOD** (e.g., \"TREATMENT DEVIATION\") **[Source: domains/DV/examples.md — Example 1]**.\n\n3. **Required Core**: DVTERM is **Required (Req)**, meaning every record in the DV domain must have a value for this variable **[Source: domains/DV/spec.md — DVTERM]**."
 },
 {
  "id": "q55",
  "category": "single_domain",
  "question": "What is the structure and observation class of the DS (Disposition) domain, and what is the role of the DSTERM variable?",
  "expected_facts": [
   "Events",
   "DSTERM",
   "Topic",
   "disposition"
  ],
  "answer": "## DS Domain Structure and Observation Class\n\n### Observation Class\n\nThe DS (Disposition) domain belongs to the **Events** general observation class. **[Source: model/01_concepts_and_terms.md — 2.1 Model Concepts and Terms — Variables]**\n\n### Domain Structure\n\nDS is a **Special Purpose** domain that represents disposition events and protocol milestones. It follows the Events class model with the following key characteristics:\n\n- **Record structure**: One record per disposition event or protocol milestone per subject\n- **Key variables**: STUDYID, USUBJID, DSSEQ (sequence number)\n- **Timing**: Events are single-point occurrences (no end dates); DSSTDTC is the expected timing variable **[Source: domains/DS/assumptions.md — item_4]**\n\n### DSTERM Variable Definition\n\n| Attribute | Value |\n|-----------|-------|\n| **Label** | Reported Term for the Disposition Event |\n| **Type** | Char |\n| **Controlled Terms** | (none — free text) |\n| **Role** | **Topic** |\n| **Core** | Required |\n\n**[Source: domains/DS/spec.md — DSTERM]**\n\n### Role of DSTERM\n\nAs the **Topic variable** for the DS domain, DSTERM serves as the focus of the observation — it contains the verbatim name of the disposition event or protocol milestone as reported/collected. **[Source: model/01_concepts_and_terms.md — 2.1 Model Concepts and Terms — Variables]**\n\nKey behavioral rules for DSTERM:\n\n1. **When DSCAT = \"DISPOSITION EVENT\"**: DSTERM contains either \"COMPLETED\" or the specific verbatim reason for non-completion (e.g., \"Subject moved\") **[Source: domains/DS/assumptions.md — item_3b]**\n\n2. **When DSCAT = \"PROTOCOL MILESTONE\"**: DSTERM contains the verbatim and/or standardized text of the milestone (e.g., \"INFORMED CONSENT OBTAINED\", \"RANDOMIZED\") **[Source: domains/DS/assumptions.md — item_3c]**\n\n3. **When DSCAT = \"OTHER EVENT\"**: DSTERM contains the reason for the event (if collected) or the same value as DSDECOD **[Source: domains/DS/assumptions.md — item_3d]**\n\n4. **Relationship to DSDECOD**: DSTERM may match DSDECOD (e.g., \"COMPLETED\"), or may contain verbatim text that maps to a controlled term in DSDECOD (e.g., DSTERM = \"Subject moved\" → DSDECOD = \"LOST TO FOLLOW-UP\") **[Source: domains/DS/spec.md — DSTERM CDISC Notes]**\n\n5. **Multiple values exception**: Unlike other Events domains, DS permits one record per disposition event even when multiple reasons exist, rather than requiring splitting into separate records **[Source: chapters/ch04_general_assumptions.md — 4.2.8.1 Multiple Values for an Intervention or Event Topic Variable]**"
 },
 {
  "id": "q56",
  "category": "single_domain",
  "question": "In the SU (Substance Use) domain, what observation class is it and what is the SUTRT variable?",
  "expected_facts": [
   "Interventions",
   "SUTRT",
   "Reported Name of Substance",
   "Topic"
  ],
  "answer": "Based on the provided context, the SU (Substance Use) domain belongs to the **Interventions** observation class, and the **SUTRT** variable is the Topic variable for the domain.\n\nHere are the details:\n\n**Observation Class:**\n- SU is classified as an **Interventions** domain. **[Source: VARIABLE_INDEX.md]**\n\n**SUTRT Variable Definition:**\n- **Label:** Reported Name of Substance\n- **Type:** Char\n- **Role:** Topic\n- **Core:** Req\n- **Controlled Terms:** (None specified)\n- **CDISC Notes:** Substance name. Examples: \"CIGARETTES\", \"COFFEE\". **[Source: domains/SU/spec.md]**\n\n**Additional Context:**\n- SUTRT captures the verbatim or prespecified text collected for the substance and is a required variable that must have a value. **[Source: domains/SU/assumptions.md]**"
 },
 {
  "id": "q57",
  "category": "single_domain",
  "question": "What is the PR (Procedures) domain used for, and what is the PRTRT topic variable along with its Core designation?",
  "expected_facts": [
   "Interventions",
   "PRTRT",
   "Reported Name of Procedure",
   "Req"
  ],
  "answer": "Based on the retrieved context, the PR (Procedures) domain is used to represent all collected procedures performed on a subject, regardless of the extent of physiological effect or whether the effect is observable or microscopic. This includes disease screening, endoscopic examinations, diagnostic tests, therapeutic procedures, and surgical procedures. Measurements obtained from procedures are represented in their respective Findings domains (e.g., biopsy details in PR, histopathology findings in MI) **[Source: domains/PR/assumptions.md — item_1]**.\n\nThe PRTRT variable is defined as follows:\n\n- **Label:** Reported Name of Procedure\n- **Type:** Char\n- **Controlled Terms:** (none)\n- **Role:** Topic\n- **Core:** Req\n- **CDISC Notes:** Name of procedure performed, either preprinted or collected on a CRF.\n\n**[Source: domains/PR/spec.md — PRTRT]**"
 },
 {
  "id": "q58",
  "category": "single_domain",
  "question": "Describe the TS (Trial Summary) domain structure and the TSPARMCD variable, including its controlled terminology codelist code and length limit.",
  "expected_facts": [
   "Trial Summary",
   "TSPARMCD",
   "C66738",
   "8 characters"
  ],
  "answer": "## TS (Trial Summary) Domain Structure\n\nThe Trial Summary (TS) dataset allows the sponsor to submit a summary of the trial in a structured format. Each record contains the value of a parameter — a characteristic of the trial — such as trial phase, protocol title, and trial objectives. TS contains information about both planned and actual trial characteristics. **[Source: domains/TS/assumptions.md — overview]**\n\nTS does **not** contain subject-level data, so there is no restriction analogous to the requirement in subject-level datasets that blocks bound by TSGRPID are within a subject. TSGRPID can be used to tie together any block of records in the TS dataset. **[Source: domains/TS/assumptions.md — item_13]**\n\nFor some trials, there will be multiple records for a single parameter (e.g., a trial addressing both safety and efficacy could have 2 records with TSPARMCD = \"TTYPE\", one with TSVAL = \"SAFETY\" and the other with TSVAL = \"EFFICACY\"). TSSEQ has a different value for each record for the same parameter. **[Source: domains/TS/assumptions.md — item_12]**\n\n### TS Variables\n\n| Order | Variable | Label | Type | Role | Core | CT |\n|-------|----------|-------|------|------|------|----|\n| 1 | STUDYID | Study Identifier | Char | Identifier | Req | — |\n| 2 | DOMAIN | Domain Abbreviation | Char | Identifier | Req | — |\n| 3 | TSSEQ | Sequence Number | Num | Identifier | Req | — |\n| 4 | TSGRPID | Group ID | Char | Identifier | Perm | — |\n| 5 | TSPARMCD | Trial Summary Parameter Short Name | Char | Topic | Req | C66738 |\n| 6 | TSPARM | Trial Summary Parameter | Char | Synonym Qualifier | Req | C67152 |\n| 7 | TSVAL | Parameter Value | Char | Result Qualifier | Exp | — |\n| 8 | TSVALNF | Parameter Value Null Flavor | Char | Result Qualifier | Perm | ISO 21090 NullFlavor |\n| 9 | TSVALCD | Parameter Value Code | Char | Result Qualifier | Exp | — |\n| 10 | TSVCDREF | Name of the Reference Terminology | Char | Result Qualifier | Exp | C66788 |\n| 11 | TSVCDVER | Version of the Reference Terminology | Char | Result Qualifier | Exp | — |\n\n**[Source: VARIABLE_INDEX.md — TS; domains/TS/spec.md]**\n\n---\n\n## TSPARMCD Variable\n\n### Definition\n\n- **Label:** Trial Summary Parameter Short Name\n- **Type:** Char\n- **Role:** Topic\n- **Core:** Req (Required)\n- **Controlled Terms:** C66738 (Trial Summary Parameter Test Code)\n- **Length Limit:** 8 characters\n\n**[Source: domains/TS/spec.md — TSPARMCD]**\n\n### CDISC Notes\n\nTSPARMCD (the companion to TSPARM) is limited to 8 characters and does **not** have special character restrictions. These values should be short for ease of use in programming, but it is not expected that TSPARMCD will need to serve as variable names. Examples: \"AGEMIN\", \"AGEMAX\". **[Source: domains/TS/spec.md — TSPARMCD]**\n\n### Comparison with Other \"CD\" Variables\n\nUnlike --TESTCD variables (which are limited to 8 characters and cannot start with a number or contain characters other than letters, numbers, or underscores), TSPARMCD is limited to 8 characters but does **not** have the same character restrictions. This same relaxed rule applies to ETCD (Element Code). **[Source: chapters/ch04_general_assumptions.md — §4.2.1]**\n\n### Controlled Terminology (C66738)\n\nThe codelist **C66738** (Trial Summary Parameter Test Code) is **Extensible** (Yes). It includes codes such as:\n\n| Code | CDISC Submission Value | CDISC Definition |\n|------|----------------------|------------------|\n| C98703 | ACTSUB | Actual Number of Subjects |\n| C146995 | ADAPT | Adaptive Design |\n| C49703 | ADDON | Added on to Existing Treatments |\n| C49694 | AGEMAX | Planned Maximum Age of Subjects |\n| C49693 | AGEMIN | Planned Minimum Age of Subjects |\n| C25488 | DOSE | Dose Level; Dose per Administration |\n| C42636 | DOSFRM | Dose Form |\n| C89081 | DOSFRQ | Dosing Frequency |\n| C71137 | DOSRGM | Dose Regimen |\n| C73558 | DOSU | Dose Units |\n| C117960 | DXCRIT | Diagnostic Criteria |\n| ... | (many more) | |\n\n**[Source: terminology/core/trial_design.md — C66738]**\n\n### Usage Notes\n\n- For some trial summary parameters, CDISC Controlled Terminology includes codelists for use with TSVAL. The associations between trial summary parameters and response codelists are in the TS codetable. **[Source: domains/TS/assumptions.md — item_8]**\n- There is a code value for TSVALCD only when there is controlled terminology for TSVAL. For example, when TSPARMCD = \"PLANSUB\" (Planned Number of Subjects) or TSPARMCD = \"TITLE\" (Trial Title), then TSVALCD will be null. **[Source: domains/TS/assumptions.md — item_9]**"
 },
 {
  "id": "q59",
  "category": "single_domain",
  "question": "In the DD (Death Details) domain, what is the DDTESTCD variable and its controlled terminology codelist code?",
  "expected_facts": [
   "DDTESTCD",
   "C116108",
   "Topic"
  ],
  "answer": "Based on the retrieved context, the **DDTESTCD** variable in the DD (Death Details) domain is defined as follows:\n\n- **Label:** Death Detail Assessment Short Name\n- **Type:** Char\n- **Role:** Topic\n- **Core:** Req\n- **Controlled Terms:** C116108\n- **CDISC Notes:** Short name of the measurement, test, or examination described in DDTEST. It can be used as a column name when converting a dataset from a vertical to a horizontal format. The value in DDTESTCD cannot be longer than 8 characters, nor can it start with a number (e.g., \"1TEST\" is not valid). DDTESTCD cannot contain characters other than letters, numbers, or underscores. Examples: \"PRCDTH\", \"SECDTH\".\n\n**[Source: domains/DD/spec.md — DDTESTCD]**\n\nThe controlled terminology codelist code for DDTESTCD is **C116108**, named \"SDTM Death Diagnosis and Details Test Code\". This codelist is extensible and includes values such as:\n\n| Code | CDISC Submission Value | CDISC Definition |\n|------|----------------------|------------------|\n| C135383 | AGEDTH | Age at Death |\n| C135384 | AUTOPIND | Autopsy Indicator |\n| C135385 | DTHCOIND | Death Certificate Obtained Indicator |\n| C184505 | DTHEXIND | Death Expected Indicator |\n| C170571 | DTHWIND | Death Witnessed Indicator |\n| C135386 | HMROIND | Hospital Medical Record Obtained Ind |\n| C176287 | INFOSCOD | Information Source for Cause of Death |\n| C124331 | LOCDTH | Location of Death |\n| C99531 | PRCDTH | Primary Cause of Death |\n| C174284 | SDTHIND | Sudden Death Indicator |\n| C116142 | SECDTH | Secondary Cause of Death |\n\n**[Source: terminology/core/other_part4.md — SDTM Death Diagnosis and Details Test Code (C116108)]**"
 },
 {
  "id": "q60",
  "category": "single_domain",
  "question": "What is the CE (Clinical Events) domain, which observation class does it belong to, and what is the CETERM variable?",
  "expected_facts": [
   "Events",
   "CETERM",
   "Topic",
   "Clinical Event"
  ],
  "answer": "## CE (Clinical Events) Domain\n\n### Observation Class\n\nThe CE domain belongs to the **Events** observation class. The Events class represents planned protocol milestones and occurrences, conditions, or incidents independent of planned study evaluations occurring during the study or prior to the study. Its structure is **One Record per Event** [Source: model/02_observation_classes.md §3.1.2].\n\n### Domain Purpose\n\nThe Clinical Events domain captures medical conditions or events that are of clinical interest as defined by the protocol but are **not considered adverse events**. These may include:\n- Episodes of symptoms of the disease under study (e.g., migraine headaches in a migraine study)\n- Events that do not constitute AEs themselves but might lead to identification of an AE\n- Efficacy endpoints (e.g., TIA, stroke, death in a stroke prevention study)\n\n[Source: domains/CE/assumptions.md item_1]\n\n### CETERM Variable Definition\n\n| Attribute | Value |\n|-----------|-------|\n| **Variable Name** | CETERM |\n| **Label** | Reported Term for the Clinical Event |\n| **Type** | Char |\n| **Role** | Topic |\n| **Core** | Required |\n| **Controlled Terms** | None (free text) |\n| **CDISC Notes** | Term for the medical condition or event. Most likely preprinted on CRF. |\n\n[Source: domains/CE/spec.md — CETERM]\n\nCETERM is the **Topic variable** for the CE domain, meaning it specifies the focus of the observation — the name of the clinical event as reported or collected. It is a required variable and is typically preprinted on the case report form (CRF) or entered as free text (e.g., \"NAUSEA\", \"VOMIT\", \"DIARRHEA\", or write-in terms like \"SEVERE HEAD PAIN\") [Source: domains/CE/examples.md — Example 2]."
 },
 {
  "id": "q61",
  "category": "single_domain",
  "question": "In the MB (Microbiology Specimen) domain, what is the MBTESTCD variable, what observation class is MB, and what is the codelist code for MBTESTCD?",
  "expected_facts": [
   "Findings",
   "MBTESTCD",
   "C120527",
   "Topic"
  ],
  "answer": "Based on the retrieved context, here is the information for the MB (Microbiology Specimen) domain:\n\n**1. MBTESTCD Variable Definition**\n\n- **Label:** Microbiology Test or Finding Short Name\n- **Type:** Char\n- **Role:** Topic\n- **Core:** Req\n- **Controlled Terms:** C120527\n- **CDISC Notes:** Short name of the measurement, test, or finding described in MBTEST. It can be used as a column name when converting a dataset from a vertical to a horizontal format. The value in MBTESTCD cannot be longer than 8 characters, nor can it start with a number (e.g., \"1TEST\" is not valid). MBTESTCD cannot contain characters other than letters, numbers, or underscores. Examples: \"MCORGIDN\" for Microbial Organism Identification \"GMNCOC\" for Gram Negative Cocci. **[Source: domains/MB/spec.md]**\n\n**2. Observation Class**\n\nThe MB domain belongs to the **Findings** observation class. **[Source: VARIABLE_INDEX.md]**\n\n**3. Codelist Code for MBTESTCD**\n\nThe codelist code for MBTESTCD is **C120527**. **[Source: domains/MB/spec.md]**"
 },
 {
  "id": "q62",
  "category": "single_domain",
  "question": "What is the SS (Subject Status) domain, what is the SSTESTCD variable, and what controlled terminology codelist does it use?",
  "expected_facts": [
   "SSTESTCD",
   "C124305",
   "Findings",
   "Topic"
  ],
  "answer": "## SS (Subject Status) Domain\n\nThe **SS (Subject Status)** domain is a **Findings** class domain used to represent subject-level status assessments, such as survival status or follow-up availability status. It captures the state or condition of a subject at a given point in time.\n\n**[Source: VARIABLE_INDEX.md — SS — Subject Status (Findings)]**\n\n---\n\n## SSTESTCD Variable\n\n| Attribute | Value |\n|-----------|-------|\n| **Label** | Status Short Name |\n| **Type** | Char |\n| **Role** | Topic |\n| **Core** | Req |\n| **Controlled Terms** | C124305 |\n| **CDISC Notes** | Short name of the status assessment described in SSTEST. It can be used as a column name when converting a dataset from a vertical to a horizontal format. The value in SSTESTCD cannot be longer than 8 characters, nor can it start with a number (e.g., \"1TEST\" is not valid). SSTESTCD cannot contain characters other than letters, numbers, or underscores. Example: \"SURVSTAT\". |\n\n**[Source: domains/SS/spec.md — SSTESTCD]**\n\n---\n\n## Controlled Terminology Codelist: C124305 (Subject Status Test Code)\n\nThe SSTESTCD variable uses the **Subject Status Test Code (C124305)** codelist, which is **Extensible: Yes**.\n\nThe codelist currently contains two standard values:\n\n| Code | CDISC Submission Value | CDISC Synonym(s) | CDISC Definition |\n|------|----------------------|-------------------|------------------|\n| C186215 | FUAVSTAT | Follow-Up Availability Status | The state or condition of the subject's availability to provide information about their health status after they are no longer receiving study treatment. |\n| C25717 | SURVSTAT | Survival Status | The state or condition of being living or deceased; also includes the case where the vital status is unknown. |\n\n**[Source: terminology/core/other_part5.md — Subject Status Test Code (C124305)]**\n\n---\n\n## Summary\n\n- **Domain**: SS (Subject Status) — Findings class\n- **SSTESTCD**: Required Topic variable, short name (≤8 chars) for the status assessment\n- **Controlled Terminology**: Codelist **C124305** (Subject Status Test Code), extensible, with standard values `SURVSTAT` (Survival Status) and `FUAVSTAT` (Follow-Up Availability Status)"
 },
 {
  "id": "q63",
  "category": "single_domain",
  "question": "In the SC (Subject Characteristics) domain, what observation class is it and what is its dataset structure?",
  "expected_facts": [
   "Findings",
   "one record per characteristic",
   "Subject Characteristics"
  ],
  "answer": "Based on the retrieved context, the SC (Subject Characteristics) domain belongs to the **Findings** general observation class and has a dataset structure of **one record per characteristic per visit per subject**.\n\n**Evidence:**\n- The SC domain is explicitly listed under the Findings class in the knowledge base index: \"SC — Subject Characteristics (Findings)\" **[Source: VARIABLE_INDEX.md]**\n- The examples file confirms: \"sc.xpt, Subject Characteristics — Findings. One record per characteristic per visit per subject., Tabulation.\" **[Source: domains/SC/examples.md]**\n- The assumptions file further clarifies that \"The structure of subject characteristics is based on the Findings general observation class\" **[Source: domains/SC/assumptions.md, item_1]**\n\n**Summary:**\n- **Observation Class:** Findings\n- **Dataset Structure:** One record per characteristic per visit per subject (Tabulation purpose)"
 },
 {
  "id": "q64",
  "category": "single_domain",
  "question": "What is the PC (Pharmacokinetics Concentrations) domain used for and what is the structure of one record in this dataset?",
  "expected_facts": [
   "Findings",
   "concentration",
   "analyte"
  ],
  "answer": "Based on the retrieved context, the PC (Pharmacokinetics Concentrations) domain is used to represent **plasma (or other specimen) drug concentration as a function of time**. It is a **Findings** class domain.\n\nThe structure of one record in the PC dataset is: **one record per sample characteristic or time-point concentration per reference time point per analyte per subject**.\n\n**[Source: domains/PC/assumptions.md — overview]**\n\nThe SDTMIG further clarifies that the topic for PC is the drug concentration, and the structure is specifically: **1 record per analyte per time point per reference time time point (e.g., dosing event) per subject**.\n\n**[Source: chapters/ch08_relationships.md — 8.6.2 Guidelines for Forming New Domains]**"
 },
 {
  "id": "q65",
  "category": "single_domain",
  "question": "In the DA (Product Accountability) domain, what observation class does it belong to and what is the structure of the dataset?",
  "expected_facts": [
   "Findings",
   "Product Accountability",
   "per subject"
  ],
  "answer": "Based on the retrieved context, the DA (Product Accountability) domain belongs to the **Findings** observation class, and its dataset structure is **one record per finding**.\n\n**Evidence:**\n- The DA domain specification explicitly references the \"Findings class definition\" from the SDTM model **[Source: domains/DA/spec.md — Model Definition]**.\n- The Findings Observation Class is defined as having a structure of \"One Record per Finding\" **[Source: model/02_observation_classes.md — 3.1.3 The Findings Observation Class]**.\n- The DA domain variable index also confirms it is classified under \"Findings\" **[Source: VARIABLE_INDEX.md — DA — Product Accountability (Findings)]**.\n\n**Summary:**\n- **Observation Class:** Findings\n- **Dataset Structure:** One record per finding"
 },
 {
  "id": "q66",
  "category": "cross_domain",
  "question": "Which SDTM domains include the VISITNUM timing variable?",
  "expected_facts": [
   "VISITNUM",
   "Visit Number",
   "LB",
   "VS"
  ],
  "answer": "Based on the knowledge base, the VISITNUM variable is not explicitly listed in the domain specification tables for most domains. However, the following information is available:\n\n**VISITNUM is a commonly used timing variable** that appears in many SDTM domains, but it is not always listed in the domain specification tables because it is a **commonly used grouping and merge key** that is an exception to the domain-prefix naming convention.\n\nFrom the general assumptions:\n\n> \"Commonly used grouping and merge keys (e.g., VISIT, VISITNUM, VISITDY)\" are exceptions to the domain-prefix philosophy. **[Source: chapters/ch04_general_assumptions.md §4.2.2]**\n\n**Domains where VISITNUM is explicitly mentioned as permissible or expected:**\n\n1. **EX (Exposure)** — VISITNUM may be added if exposure occurs within a clinical encounter (e.g., injection at clinic), but not for home dosing. **[Source: domains/EX/assumptions.md §4a]**\n\n2. **SU (Substance Use)** — VISITNUM would be added if substance use information is collected more than once within the CRF (visit-based data). **[Source: domains/SU/assumptions.md §4b]**\n\n3. **LB (Laboratory Test Results)** — Example shows VISITNUM used with values like 2, 3, 3.1. **[Source: chapters/ch04_general_assumptions.md §4.4.5]**\n\n**General rule for all Findings domains:**\n> \"In the Findings observation class, where data are usually collected at multiple visits, at least 1 timing variable must be used.\" **[Source: chapters/ch04_general_assumptions.md §4.4.5]**\n\n**For planned visits:**\n> \"VISITNUM: numeric, used for sorting; values should wherever possible match the planned chronological order of visits.\" **[Source: chapters/ch04_general_assumptions.md §4.4.5]**\n\n**For unplanned visits:**\n> \"VISITNUM should generally be populated, even for unplanned visits, as it is expected in many Findings domains.\" **[Source: chapters/ch04_general_assumptions.md §4.4.5]**\n\n**Conclusion:** VISITNUM is expected in **most Findings domains** and is permissible in **Events and Interventions domains** when data are visit-based. The knowledge base does not provide an exhaustive list of every domain that includes VISITNUM, but based on the general assumptions, it would be appropriate in virtually all domains that collect data at clinical encounters (planned or unplanned visits)."
 },
 {
  "id": "q67",
  "category": "cross_domain",
  "question": "Many SDTM variables use the No Yes Response codelist C66742. How many variables reference it and give some examples of AE seriousness variables that use it.",
  "expected_facts": [
   "C66742",
   "AESER",
   "AESDTH"
  ],
  "answer": "Based on the provided context, the **No Yes Response** codelist (C66742) is referenced by multiple variables across different domains.\n\nFrom the context, I can identify the following variables that reference C66742:\n\n1. **AE domain (Adverse Events)** — 13 variables total, including:\n   - `AEPRESP` (Pre-specified Adverse Event)\n   - `AESER` (Serious Event)\n   - `AESCAN` (Involves Cancer)\n   - `AESCONG` (Congenital Anomaly/Birth Defect)\n   - `AESDISAB` (Persistent or Significant Disability/Incapacity)\n   - `AESDTH` (Resulted in Death)\n   - `AESHOSP` (Required or Prolonged Hospitalization)\n   - `AESLIFE` (Life Threatening)\n   - `AESMIE` (Other Medically Important Serious Event)\n   - `AESOD` (Occurred with Overdose)\n\n   **[Source: domains/AE/spec.md → Controlled Terminology]**\n\n2. **CE domain (Clinical Events)** — `CEPRESP`, `CEOCCUR`\n   **[Source: domains/CE/spec.md → Controlled Terminology]**\n\n3. **SV domain (Subject Visits)** — `SVPRESP`, `SVOCCUR`, `SVEPCHGI`\n   **[Source: domains/SV/spec.md → Controlled Terminology]**\n\n**AE Seriousness Variables Example:**\n\nThe AE seriousness variables that use C66742 include:\n- `AESER` — the overall seriousness question (\"Serious?\")\n- `AESDTH` — resulted in death\n- `AESHOSP` — required or prolonged hospitalization\n- `AESLIFE` — life threatening\n- `AESCONG` — congenital anomaly/birth defect\n- `AESDISAB` — persistent or significant disability/incapacity\n- `AESMIE` — other medically important serious event\n- `AESCAN` — involves cancer\n- `AESOD` — occurred with overdose\n\n**Note:** According to AE assumptions, if `AESER` is answered \"N\", the seriousness category variables (e.g., `AESDTH`, `AESHOSP`) may be left null. If `AESER` is \"Y\", at least one category variable will have a \"Y\" response. **[Source: domains/AE/assumptions.md → item_7a]**\n\nThe codelist C66742 (No Yes Response) is **non-extensible** and contains four permitted values:\n- `Y` (Yes)\n- `N` (No)\n- `U` (Unknown)\n- `NA` (Not Applicable)\n\n**[Source: terminology/core/general_part4.md → No Yes Response (C66742)]**\n\n**Note:** The context does not provide a complete count of all variables across all domains that reference C66742. The total number of variables using this codelist across the entire SDTMIG is not fully enumerated in the provided excerpts."
 },
 {
  "id": "q68",
  "category": "cross_domain",
  "question": "Which domains use the Completion Status codelist (C66789) for their --STAT variable, and what does --STAT indicate?",
  "expected_facts": [
   "C66789",
   "STAT",
   "Completion Status"
  ],
  "answer": "Based on the retrieved context, the Completion Status codelist (C66789) is used by the following domains for their `--STAT` variable:\n\n| Domain | Variable | What `--STAT` Indicates |\n|--------|----------|------------------------|\n| **SS** (Subject Status) | SSSTAT | Indicates a status assessment was not done. Should be null if a result exists in SSORRES. **[Source: domains/SS/spec.md]** |\n| **SC** (Subject Characteristics) | SCSTAT | Indicates that the measurement was not done. Should be null if a result exists in SCORRES. **[Source: domains/SC/spec.md]** |\n| **IS** (Immunogenicity Specimen Assessments) | ISSTAT | Indicates a test was not done. Should be null if a result exists in ISORRES. **[Source: domains/IS/spec.md]** |\n| **PC** (Pharmacokinetics Concentrations) | PCSTAT | Indicates a result was not obtained. Should be null if a result exists in PCORRES. **[Source: domains/PC/spec.md]** |\n| **SR** (Skin Response) | SRSTAT | Indicates exam not done. Should be null if a result exists in SRORRES. **[Source: domains/SR/spec.md]** |\n| **VS** (Vital Signs) | VSSTAT | Indicates that a vital sign measurement was not done. Should be null if a result exists in VSORRES. **[Source: domains/VS/spec.md]** |\n| **CM** (Concomitant/Prior Medications) | CMSTAT | Indicates that a question about the occurrence of a prespecified intervention was not answered. Should be null or have a value of \"NOT DONE\". **[Source: domains/CM/spec.md]** |\n| **QS** (Questionnaires) | QSSTAT | Indicates that a question was not done or was not answered. Should be null if a result exists in QSORRES. **[Source: domains/QS/spec.md]** |\n| **SU** (Substance Use) | SUSTAT | When the use of prespecified substances is solicited, indicates that there was no response to the question about the prespecified substance. When there is no prespecified list on the CRF, indicates that substance use was not assessed for the subject. **[Source: domains/SU/spec.md]** |\n| **PP** (Pharmacokinetics Parameters) | PPSTAT | Indicates that a parameter was not calculated. Should be null if a result exists in PPORRES. **[Source: domains/PP/spec.md]** |\n| **CP** (Cell Phenotype Findings) | CPSTAT | Indicates that the test was not performed or that it was attempted but did not generate a result. Should be null if a result exists in CPORRES. **[Source: domains/CP/spec.md]** |\n| **BS** (Biospecimen Findings) | BSSTAT | Indicates that a test was not done, or was attempted but did not generate a result. Should be null or have a value of NOT DONE. **[Source: domains/BS/spec.md]** |\n| **MS** (Microbiology Susceptibility) | MSSTAT | Indicates that a question was not asked or a test was not done, or a test was attempted but did not generate a result. Should be null or have a value of \"NOT DONE\". **[Source: domains/MS/spec.md]** |\n\n**Codelist C66789 (Not Done)** is non-extensible and contains only one permitted value: `NOT DONE` (Code C49484). **[Source: terminology/core/general_part4.md]**\n\n**Common pattern across all domains:** The `--STAT` variable is a **Record Qualifier** with **Permissible** core. The general rule is that `--STAT` should be **null** if a result exists in the corresponding `--ORRES` variable, and should contain `\"NOT DONE\"` when the assessment/test/question was not completed or answered."
 },
 {
  "id": "q69",
  "category": "cross_domain",
  "question": "The dose units codelist C71620 is shared across many Intervention and Findings domains. Which variables such as EXDOSU and CMDOSU reference it?",
  "expected_facts": [
   "C71620",
   "EXDOSU",
   "CMDOSU"
  ],
  "answer": "Based on the retrieved context, the dose units codelist **C71620** is referenced by the following variables across multiple Intervention domains:\n\n1. **EC** — **ECDOSU** (Dose Units) — Core: Exp — Role: Variable Qualifier **[Source: domains/EC/spec.md — ECDOSU]**\n2. **CM** — **CMDOSU** (Dose Units) — Core: Perm — Role: Variable Qualifier **[Source: domains/CM/spec.md — CMDOSU]**\n3. **EX** — **EXDOSU** (Dose Units) — Core: Exp — Role: Variable Qualifier **[Source: domains/EX/spec.md — EXDOSU]**\n4. **ML** — **MLDOSU** (Dose Units) — Core: Perm — Role: Variable Qualifier **[Source: domains/ML/spec.md — MLDOSU]**\n\nAll four variables share the same controlled terminology codelist **C71620** and serve the same role as **Variable Qualifier** for their respective dose variables (e.g., ECDOSE, CMDOSE, EXDOSE, MLDOSE). The CDISC Notes for each indicate that the units apply to the dose, total daily dose, or dose description variables in their respective domains.\n\n**Note:** The retrieved context does not show any Findings domain variables referencing C71620. The statement in the question that C71620 is \"shared across many Intervention and Findings domains\" is not supported by the available evidence — only Intervention domains (EC, CM, EX, ML) are documented as referencing this codelist in the provided context."
 },
 {
  "id": "q70",
  "category": "cross_domain",
  "question": "How is the RELSUB (Related Subjects) dataset used to represent relationships between two subjects, and what does the RSUBJID variable hold?",
  "expected_facts": [
   "RSUBJID",
   "USUBJID",
   "SREL"
  ],
