[
  {
    "id": "q02",
    "category": "single_domain",
    "question": "What are the required (Core=Req) variables in the DM domain?",
    "expected_facts": [
      "STUDYID",
      "DOMAIN",
      "USUBJID",
      "SUBJID",
      "SITEID",
      "SEX",
      "COUNTRY"
    ],
    "on_v2_fact_misses": [
      "SITEID",
      "SEX",
      "COUNTRY"
    ],
    "retrieved_context": "### [1] domains/DM/spec.md -- DOMAIN  (similarity: 0.481)\n\n### DOMAIN\n- **Order:** 2\n- **Label:** Domain Abbreviation\n- **Type:** Char\n- **Controlled Terms:** \n- **Role:** Identifier\n- **Core:** Req\n- **CDISC Notes:** Two-character abbreviation for the domain.\n\n\n\n---\n\n### [2] domains/DM/spec.md -- General References  (similarity: 0.425)\n\n### General References\n- [General Assumptions (Ch4)](../../chapters/ch04_general_assumptions.md) — variable naming, coding, timing rules\n- [Relationships (Ch8)](../../chapters/ch08_relationships.md) — RELREC, SUPPQUAL usage\n- [Variable Index](../../VARIABLE_INDEX.md) — reverse lookup by variable name\n\n\n\n---\n\n### [3] domains/DM/spec.md -- Model Definition  (similarity: 0.405)\n\n### Model Definition\n- [Special-Purpose class definition](../../model/03_special_purpose_domains.md)\n\n\n---\n\n### [4] domains/DM/spec.md -- Controlled Terminology  (similarity: 0.404)\n\n### Controlled Terminology\n- [Arm Null Reason (C142179)](../../terminology/core/dm.md) — ARMNRS\n- [Sex (C66731)](../../terminology/core/dm.md) — SEX\n- [No Yes Response (C66742)](../../terminology/core/general_part4.md) — DTHFL\n- [Age Unit (C66781)](../../terminology/core/dm.md) — AGEU\n- [Ethnic Group (C66790)](../../terminology/core/dm.md) — ETHNIC\n- [Race (C74457)](../../terminology/core/dm.md) — RACE\n\n\n\n---\n\n### [5] chapters/ch04_general_assumptions.md -- 4.2.2 Two-character Domain Identifier  (similarity: 0.506)\n\n### 4.2.2 Two-character Domain Identifier\n\nIn order to minimize the risk of difficulty when merging/joining domains for reporting purposes, the 2-character domain identifier is used as a prefix in most variable names.\n\nVariables in domain specification tables (see Section 5, Models for Special-purpose Domains; Section 6, Domain Models Based on the General Observation Classes; Section 7, Trial Design Model Datasets; Section 8, Representing Relationships and Data; and Section 9, Study References) already specify the complete variable names. When adding variables from the SDTM to standard domains or creating custom domains based on the general observation classes, sponsors must replace the \"--\" prefix in the SDTM tables of General Observation Class, Timing, and Identifier variables with the 2-character domain identifier (DOMAIN) value for that domain/dataset. The 2-character domain code is limited to A-Z for the first character, and A-Z, 0-9 for the second character. No other characters are allowed. This is for compatibility with SAS v5 transport files and with file naming requirements as part of the Electronic Common Technical Document (eCTD).\n\nThe following variables are exceptions to the philosophy that all variable names are prefixed with the domain identifier:\n\n- Required Identifiers (STUDYID, DOMAIN, USUBJID)\n- Commonly used grouping and merge keys (e.g., VISIT, VISITNUM, VISITDY)\n- All Demographics (DM) domain variables other than DMDTC and DMDY\n- All variables in RELREC and SUPPQUAL, and some variables in the Comments and Trial Design datasets\n\nRequired identifiers are not prefixed because they are usually used as keys when merging/joining observations. The --SEQ and the optional Identifiers --GRPID and --REFID are prefixed because they may be used as keys when relating observations across domains.\n\n\n\n---\n\n### [6] chapters/ch04_general_assumptions.md -- 4.1.5 SDTM Core Designations  (similarity: 0.567)\n\n### 4.1.5 SDTM Core Designations\n\nThree categories are specified in the Core column in the domain models:\n\n- An **Expected** variable is any variable necessary to make a record useful in the context of a specific domain. Expected variables may contain some null values, but in most cases will not contain null values for every record. When the study does not include the data item for an expected variable, however, a null column must still be included in the dataset, and a comment must be included in the Define-XML document to state that the study does not include the data item.\n\n| Core Value | Meaning | Rule |\n|------------|---------|------|\n| **Req** (Required) | A Required variable is any variable that is basic to the identification of a data record (i.e., essential key variables and a topic variable) or is necessary to make the record meaningful. Required variables must always be included in the dataset and cannot be null for any record. | Must always be populated; cannot be null for any record |\n| **Exp** (Expected) | Must be included in the dataset | Value should be populated when available; null values allowed when data not collected/applicable; must still include the column and add a comment in the Define-XML document to state that the study does not include the data item |\n| **Perm** (Permissible) | May be included in the dataset | If a study includes a data item that would be represented in a Permissible variable, then that variable must be included (even if null) and declared in Define-XML; if a study did not collect the data, do not include the variable and do not declare it in Define-XML |\n\nAlthough domain specification tables list only some of the identifier, timing, and general observation class variables listed in the SDTM, all are permissible unless specifically restricted in this implementation guide (see Section 2.7, SDTM Variables Not Allowed in the SDTMIG) or by specific domain assumptions.\n\n- Domain assumptions that say a Permissible variable is \"generally not used\" do not prohibit use of the variable.\n- If a study includes a data item that would be represented in a Permissible variable, then that variable must be included in the SDTM dataset, even if null. Indicate no data were available for that variable in the Define-XML document.\n- If a study did not include a data item that would be represented in a Permissible variable, then that variable should not be included in the SDTM dataset and should not be declared in the Define-XML document.\n\n\n\n---\n\n### [7] domains/DM/assumptions.md -- overview  (similarity: 0.608)\n\n# DM — Assumptions\n\n## DM – Description/Overview\n\nA special-purpose domain that includes a set of essential standard variables that describe each subject in a clinical study.\n\nIt is the parent domain for all other observations for human clinical subjects.\n\n## DM – Assumptions\n\n---\n\n### [8] model/01_concepts_and_terms.md -- 2.1 Model Concepts and Terms — Variables  (similarity: 0.505)\n\n## 2.1 Model Concepts and Terms — Variables\n\nThe SDTM provides a general framework for describing the organization of information collected during human and animal studies. The model is built around the concept of **observations**, which consist of discrete pieces of information collected during a study. Observations normally correspond to rows in a dataset. A **domain** is a collection of observations on a particular topic. For example, \"Subject 101 had an adverse event of mild nausea starting on study day 6\" is an observation belonging to the Adverse Events domain in a clinical trial.\n\nThe primary purpose of the SDTM is to represent data about study subjects — which may be humans or animals — or medical devices. The SDTM includes a general model for representing data in 3 \"general observation\" classes. Within those classes, data are grouped by topic into domains, represented in separate datasets.\n\n### Concept Map: Relationships Between SDTM Domains\n\n```mermaid\ngraph TD\n    %% Key:\n    %% Plain rounded box = Group of individually specified datasets\n    %% Filled box (:::extensible) = Extensible set of domains based on a common model\n\n    SDTM[\"Study Data TabulationModel\"]\n\n    SDTM -->|includes| SD[\"Domains forSubject Data\"]\n    SDTM -->|includes| AP[\"Domains forAssociatedPersons Data\"]\n    SDTM -->|includes| SL[\"Domains forStudy-Level Data\"]\n    SDTM -->|includes| RD[\"RelationshipDatasets\"]:::extensible\n\n    SD -->|include| GOC[\"GeneralObservation ClassDomains\"]:::extensible\n    SD -->|include| SPD[\"SpecialPurposeDomains\"]:::extensible\n\n    GOC -->|include| EV[\"EventsDomains\"]:::extensible\n    GOC -->|include| IV[\"InterventionsDomains\"]:::extensible\n    GOC -->|include| FI[\"FindingsDomains\"]:::extensible\n\n    FI -->|subtype of| FA[\"Findings AboutDomains\"]:::extensible\n\n    SL -->|include| TDM[\"Trial DesignModel\"]:::extensible\n    SL -->|include| SRS[\"Study ReferenceDatasets\"]\n\n    classDef extensible fill:#c8e6c9,stroke:#388e3c,color:#1b5e20\n```\n\n> **Key:** Plain box = Group of individually specified datasets. Green filled box = Extensible set of domains based on a common model.\n\n### Variable Roles\n\nAll datasets are structured as flat files with rows representing observations and columns representing variables; each dataset is described by metadata definitions that provide information about the variables used in the dataset. Metadata are described in the CDISC Define-XML specification.\n\nEach observation consists of a series of named variables. Each variable, which normally corresponds to a column in a dataset, can be classified according to its **role**. A role describes the type of information conveyed by the variable about each distinct observation and how it can be used. There are variables which play different roles in different datasets. This is most common for variables which appear in both trial design datasets and general observation class datasets. For example, ARMCD is the topic variable in Trial Arms (TA), but a record qualifier in Demographics (DM) and Trial Visits (TV). Variables which appear in multiple general observation classes have the same role, although the variable qualified by a variable qualifier or synonym qualifier can be different in different general observation classes. For example, --MODIFY qualifies --TRT in interventions, --TERM in events, and --ORRES in findings.\n\nSDTM variables can be classified into 5 major roles:\n\n1. **Identifier variables** — identify the study, subject, domain, and sequence number of the record\n2. **Topic variables** — specify the focus of the observation (e.g., the name of a lab test)\n3. **Timing variables** — describe the timing of an observation (e.g., start date, end date)\n4. **Qualifier variables** — include additional illustrative text or numeric values that describe the results or additional traits of the observation (e.g., units, descriptive adjectives)\n5. **Rule variables** — describe conditions for starting, ending, branching, or looping in the Trial Design Mode\n...(truncated)\n\n---\n\n### [9] domains/SV/spec.md -- DOMAIN  (similarity: 0.482)\n\n### DOMAIN\n- **Order:** 2\n- **Label:** Domain Abbreviation\n- **Type:** Char\n- **Controlled Terms:** \n- **Role:** Identifier\n- **Core:** Req\n- **CDISC Notes:** Two-character abbreviation for the domain most relevant to the observation. The domain abbreviation is also used as a prefix for variables to ensure uniqueness when datasets are merged.\n\n\n\n---\n\n### [10] domains/RELSUB/examples.md -- Example 1  (similarity: 7.546)\n\n## Example 1\n\nThe following data are from a hemophilia study (HEM021) in which the study subjects are a pair of fraternal (dizygotic) twins and their mother.\n\nSome expected and required variables not needed to illustrate the example are not shown.\n\n**Row 1:** Subject is the mother.\n\n**Rows 2-3:** Subjects are the children.\n\n**dm.xpt**\n\n| Row | STUDYID | DOMAIN | USUBJID | BRTHDTC | AGE | AGEU | SEX |\n|-----|---------|--------|---------|---------|-----|------|-----|\n| 1 | HEM021 | DM | HEM021-001 | 1941-05-16 | 60 | YEARS | F |\n| 2 | HEM021 | DM | HEM021-002 | 1965-04-12 | 35 | YEARS | M |\n| 3 | HEM021 | DM | HEM021-003 | 1965-04-12 | 35 | YEARS | M |\n\nThe RELSUB table is for the 3 subjects whose demography data is shown in the preceding table.\n\n**Rows 1-2:** The relationships of the mother to the 2 children.\n\n**Rows 3, 5:** The relationships of the children to the mother.\n\n**Rows 4, 6:** The relationships of the children to each other.\n\n**relsub.xpt**\n\n| Row | STUDYID | USUBJID | RSUBJID | SREL |\n|-----|---------|---------|---------|------|\n| 1 | HEM021 | HEM021-001 | HEM021-002 | MOTHER, BIOLOGICAL |\n| 2 | HEM021 | HEM021-001 | HEM021-003 | MOTHER, BIOLOGICAL |\n| 3 | HEM021 | HEM021-002 | HEM021-001 | CHILD, BIOLOGICAL |\n| 4 | HEM021 | HEM021-002 | HEM021-003 | TWIN, DIZYGOTIC |\n| 5 | HEM021 | HEM021-003 | HEM021-001 | CHILD, BIOLOGICAL |\n| 6 | HEM021 | HEM021-003 | HEM021-002 | TWIN, DIZYGOTIC |\n\n\n---\n\n### [11] chapters/ch08_relationships.md -- Example  (similarity: 7.393)\n\n### Example\n\nExample 1: The following data are from a hemophilia study (HEM021) in which the study subjects are a pair of fraternal (dizygotic) twins and their mother.\n\nSome expected and required variables not needed to illustrate the example are not shown.\n\n**Row 1:** Subject is the mother.\n**Rows 2-3:** Subjects are the children.\n\ndm.xpt:\n\n| Row | STUDYID | DOMAIN | USUBJID | BRTHDTC | AGE | AGEU | SEX |\n|-----|---------|--------|---------|---------|-----|------|-----|\n| 1 | HEM021 | DM | HEM021-001 | 1941-05-16 | 60 | YEARS | F |\n| 2 | HEM021 | DM | HEM021-002 | 1965-04-12 | 35 | YEARS | M |\n| 3 | HEM021 | DM | HEM021-003 | 1965-04-12 | 35 | YEARS | M |\n\nThe RELSUB table is for the 3 subjects whose demography data is shown in the preceding table.\n\n**Rows 1-2:** The relationship of the mother to the 2 children.\n**Rows 3, 5:** The relationships of the children to the mother.\n**Rows 4, 6:** The relationships of the children to each other.\n\nrelsub.xpt:\n\n| Row | STUDYID | USUBJID | RSUBJID | SREL |\n|-----|---------|---------|---------|------|\n| 1 | HEM021 | HEM021-001 | HEM021-002 | MOTHER, BIOLOGICAL |\n| 2 | HEM021 | HEM021-001 | HEM021-003 | MOTHER, BIOLOGICAL |\n| 3 | HEM021 | HEM021-002 | HEM021-001 | CHILD, BIOLOGICAL |\n| 4 | HEM021 | HEM021-002 | HEM021-003 | TWIN, DIZYGOTIC |\n| 5 | HEM021 | HEM021-003 | HEM021-001 | CHILD, BIOLOGICAL |\n| 6 | HEM021 | HEM021-003 | HEM021-002 | TWIN, DIZYGOTIC |\n\n---\n\n## 8.8 Related Specimens (RELSPEC)\n\n> **Note:** BE, BS, and RELSPEC domain specifications, assumptions, and examples were copied and minimally updated from the provisional SDTMIG-PGx, published 2015-05-26. This was done in preparation for the retirement of the SDTMIG-PGx upon publication of SDTMIG v3.4. These domains are currently under extensive revision for inclusion in a future SDTMIG.\n\n\n\n---\n\n### [12] domains/TM/spec.md -- DOMAIN  (similarity: 0.493)\n\n### DOMAIN\n- **Order:** 2\n- **Label:** Domain Abbreviation\n- **Type:** Char\n- **Controlled Terms:** \n- **Role:** Identifier\n- **Core:** Req\n- **CDISC Notes:** Two-character abbreviation for the domain, which must be TM.\n\n\n\n---\n\n### [13] domains/DM/examples.md -- Example 2  (similarity: 7.298)\n\n## Example 2\n\nThis example Demographics dataset does not include all the DM required and expected variables, only those that illustrate the variables that represent arm information. The following example illustrates values of ARMCD for subjects in Example Trial 1, described in Section 7.2.1, Trial Arms. This study included 2 elements, screen and run-in, before subjects were randomized to treatment. For this study, the sponsor submitted data on all subjects, including screen-failure subjects.\n\n**Row 1:** Subject 001 was randomized to arm \"Drug A\". As shown in the SE dataset, this subject completed the \"Drug A\" element, so their actual arm was also \"Drug A\".\n\n**Row 2:** Subject 002 was randomized to arm \"Drug B\". As shown in the SE dataset, their actual arm was consistent with their randomization.\n\n**Row 3:** Subject 003 was a screen failure, so they were not assigned to an arm or treated. The arm actual arm variables are null, and ARMNRS=\"SCREEN FAILURE\".\n\n**Row 4:** Subject 004 withdrew during the run-in element. Like subject 003, they were not assigned to an arm or treated. However, they were not considered a screen failure, and ARMNRS=\"NOT ASSIGNED\".\n\n**Row 5:** Subject 005 was randomized but dropped out before being treated. Thus, the actual arm variables are not populated and ARMNRS=\"ASSIGNED, NOT TREATED\".\n\n**dm.xpt**\n\n| Row | STUDYID | DOMAIN | USUBJID | ARMCD | ARM | ACTARMCD | ACTARM | ARMNRS | ACTARMUD |\n|-----|---------|--------|---------|-------|-----|----------|--------|--------|----------|\n| 1 | ABC | DM | 001 | A | Drug A | A | Drug A | | |\n| 2 | ABC | DM | 002 | B | Drug B | B | Drug B | | |\n| 3 | ABC | DM | 003 | | | | | SCREEN FAILURE | |\n| 4 | ABC | DM | 004 | | | | | NOT ASSIGNED | |\n| 5 | ABC | DM | 005 | A | Drug A | | | ASSIGNED, NOT TREATED | |\n\n**Rows 1-3:** Subject 001 completed all the elements for arm A.\n\n**Rows 4-6:** Subject 002 completed all the elements for arm B.\n\n**Row 7:** Subject 003 was a screen failure, who participated only in the \"Screen\" element.\n\n**Rows 8-9:** Subject 004 withdrew during the \"Run-in\" element, before they could be randomized.\n\n**Rows 10-11:** Subject 005 withdrew after they were randomized, but did not start treatment.\n\n**se.xpt**\n\n| Row | STUDYID | DOMAIN | USUBJID | SESEQ | ETCD | ELEMENT | SESTDTC | SEENDTC |\n|-----|---------|--------|---------|-------|------|---------|---------|---------|\n| 1 | ABC | SE | 001 | 1 | SCRN | Screen | 2006-06-01 | 2006-06-07 |\n| 2 | ABC | SE | 001 | 2 | RI | Run-In | 2006-06-07 | 2006-06-21 |\n| 3 | ABC | SE | 001 | 3 | A | Drug A | 2006-06-21 | 2006-07-05 |\n| 4 | ABC | SE | 002 | 1 | SCRN | Screen | 2006-05-03 | 2006-05-10 |\n| 5 | ABC | SE | 002 | 2 | RI | Run-In | 2006-05-10 | 2006-05-24 |\n| 6 | ABC | SE | 002 | 3 | B | Drug B | 2006-05-24 | 2006-06-07 |\n| 7 | ABC | SE | 003 | 1 | SCRN | Screen | 2006-06-27 | 2006-06-30 |\n| 8 | ABC | SE | 004 | 1 | SCRN | Screen | 2006-05-14 | 2006-05-21 |\n| 9 | ABC | SE | 004 | 2 | RI | Run-In | 2006-05-21 | 2006-05-26 |\n| 10 | ABC | SE | 005 | 1 | SCRN | Screen | 2006-05-14 | 2006-05-21 |\n| 11 | ABC | SE | 005 | 2 | RI | Run-In | 2006-05-21 | 2006-05-26 |\n\n\n\n---\n\n### [14] domains/SUPPQUAL/spec.md -- Controlled Terminology  (similarity: 0.489)\n\n### Controlled Terminology\n- [SDTM Domain Abbreviation (C66734)](../../terminology/core/general_part4.md) — RDOMAIN\n- [Evaluator (C78735)](../../terminology/core/general_part2.md) — QEVAL\n\n\n\n---\n\n### [15] domains/RELREC/assumptions.md -- overview  (similarity: 7.034)\n\n# RELREC — Assumptions\n\nThe Related Records (RELREC) special-purpose dataset is used to describe relationships between records for a subject (relating peer records) and relationships between datasets (relating datasets). In both cases, relationships represented in RELREC are collected relationships, either by explicit references or checkboxes on the CRF, or by design of the CRF (e.g., vital signs captured during an exercise stress test).\n\nA relationship is defined by adding a record to RELREC for each record to be related and by assigning a unique character identifier value for the relationship. Each record in the RELREC special-purpose dataset contains keys that identify a record (or group of records) and the relationship identifier, which is stored in the RELID variable. The value of RELID is chosen by the sponsor, but must be identical for all related records within USUBJID. It is recommended that the sponsor use a standard system or naming convention for RELID (e.g., all letters, all numbers, capitalized).\n\n## Relating Peer Records\n\nRecords expressing a relationship are specified using the key variables STUDYID, RDOMAIN (the domain code of the record in the relationship), and USUBJID, along with IDVAR and IDVARVAL. Single records can be related by using a unique-record-identifier variable such as --SEQ in IDVAR. Groups of records can be related by using grouping variables such as --GRPID in IDVAR. IDVARVAL would contain the value of the variable described in IDVAR. Using --GRPID can be a more efficient method of representing relationships in RELREC, such as when relating an adverse event (or events) to a group of concomitant medications taken to treat the adverse event(s).\n\nThe RELREC dataset should be used to represent either:\n- explicit relationships, such as concomitant medications taken as a result of an adverse event; or\n- information of a nature that necessitates using multiple datasets, as described in Section 8.3, Relating Datasets.\n\nThe following are examples of variables that could be used in IDVAR:\n- The sequence number (--SEQ) variable uniquely identifies a record for a given USUBJID within a domain. The variable --SEQ is required in all domains except DM.\n- The reference identifier (--REFID) variable can be used to capture a sponsor-defined or external identifier. Some examples are lab-specimen identifiers and ECG identifiers. --REFID is permissible in all general observation-class domains, but is never required. Values for --REFID are sponsor-defined.\n- The grouping identifier (--GRPID) variable, used to link related records for a subject within a domain, is explained in Section 8.1, Relating Groups of Records Within a --GRPID Variable.\n\n## Relating Datasets\n\nThe Related Records (RELREC) special-purpose dataset can also be used to identify relationships between datasets (e.g., a one-to-many or parent-child relationship). The relationship is defined by including a single record for each related dataset that identifies the key(s) of the dataset that can be used to relate the respective records.\n\nRelationships between datasets should only be recorded in the RELREC dataset when the sponsor has found it necessary to split information between datasets that are related, and that may need to be examined together for analysis or proper interpretation. Note that it is not necessary to use the RELREC dataset to identify associations from data in the SUPP-- datasets or the Comments (CO) dataset to their parent general-observation class dataset records or special-purpose domain records, as both these datasets include the key variable identifiers of the parent record(s) that are necessary to make the association.\n\nThe variable RELTYPE identifies the type of relationship between the datasets. The allowable values are ONE and MANY (controlled terminology is expected). This information defines how a merge/join would be written, and what would be the result of the merge/join. The possible combinations are:",
    "off_answer": "Based on the DM domain specification, the following variables have Core=\"Req\" (Required). These must be included in the DM dataset and cannot contain null values for any subject record.\n\n| Variable | Label | Type | Role | Controlled Terms (if applicable) |\n|----------|-------|------|------|----------------------------------|\n| STUDYID | Study Identifier | Char | Identifier | |\n| DOMAIN | Domain Abbreviation | Char | Identifier | |\n| USUBJID | Unique Subject Identifier | Char | Identifier | |\n| SUBJID | Subject Identifier for the Study | Char | Identifier | |\n| RFSTDTC | Subject Reference Start",
    "on_v2_answer": "Based on the DM domain specification, the following variables have a Core designation of **Req** (Required). Required variables must always be included in the dataset and cannot be null for any record [Source: chapters/ch04_general_assumptions.md].\n\n**DM Required Variables:**\n\n*   **STUDYID** (Order: 1)\n    *   **Label:** Study Identifier\n    *   **Type:** Char\n    *   **Role:** Identifier\n    *   **CDISC Notes:** Unique identifier for a study.\n\n*   **DOMAIN** (Order: 2)\n    *   **Label:** Domain Abbreviation\n    *   **Type:** Char\n    *   **Role:** Identifier\n    *   **CDISC Notes:** Two-character abbreviation for the domain.\n    *   [Source: domains/DM/spec.md]\n\n*   **USUBJID** (Order: 3)\n    *   **Label:** Unique Subject Identifier\n    *   **Type:** Char\n    *   **Role:** Identifier\n    *   **CDISC Notes:** Identifier used to uniquely identify a subject across all studies for all applications or submissions involving the product.\n\n*   **SUBJID** (Order: 4)\n    *   **Label:** Subject Identifier for the Study\n    *   **Type:** Char\n    *   **Role:** Identifier\n    *   **CDISC Notes:** Subject identifier used in the course of the study.\n\n*   **RFSTDTC** (Order: 5)\n    *   **Label:** Subject Reference Start Date/Time\n    *   **Type:** Char\n    *   **Role:** Record Qualifier\n    *   **CDISC Notes:** Reference Start Date/time for a study. For many single epoch studies, this is the date and time when the subject first received the study product. For studies with multiple epochs, this is the date and time when the subject first received the study product for the epoch in question.\n\n*   **RFENDTC** (Order: 6)\n    *   **Label:** Subject Reference End Date/Time\n    *   **Type:** Char\n    *   **Role:** Record Qualifier\n    *   **CDISC Notes:** Reference End Date/time for a study. For many single epoch studies, this is the date and time when the subject last received the study product. For studies with multiple epochs, this is the date and time when the subject last received the study product for the epoch in question."
  },
  {
    "id": "q06",
    "category": "cross_domain",
    "question": "What is SUPPQUAL and when should supplemental qualifiers be used instead of adding variables to a domain?",
    "expected_facts": [
      "QNAM",
      "QVAL",
      "non-standard"
    ],
    "on_v2_fact_misses": [
      "non-standard"
    ],
    "retrieved_context": "### [1] domains/SUPPQUAL/spec.md -- QVAL  (similarity: 0.553)\n\n### QVAL\n- **Order:** 8\n- **Label:** Data Value\n- **Type:** Char\n- **Controlled Terms:** \n- **Role:** Result Qualifier\n- **Core:** Req\n- **CDISC Notes:** Result of, response to, or value associated with QNAM. A value for this column is required; no records can be in SUPP-- with a null value for QVAL.\n\n\n\n---\n\n### [2] domains/SUPPQUAL/spec.md -- QNAM  (similarity: 0.487)\n\n### QNAM\n- **Order:** 6\n- **Label:** Qualifier Variable Name\n- **Type:** Char\n- **Controlled Terms:** \n- **Role:** Topic\n- **Core:** Req\n- **CDISC Notes:** The short name of the qualifier variable, which is used as a column name in a domain view with data from the parent domain. The value in QNAM cannot be longer than 8 characters, nor can it start with a number (e.g., \"1TEST\" is not valid). QNAM cannot contain characters other than letters, numbers, or underscores. This will often be the column name in the sponsor's operational dataset.\n\n\n\n---\n\n### [3] domains/SUPPQUAL/spec.md -- QEVAL  (similarity: 0.470)\n\n### QEVAL\n- **Order:** 10\n- **Label:** Evaluator\n- **Type:** Char\n- **Controlled Terms:** C78735\n- **Role:** Record Qualifier\n- **Core:** Exp\n- **CDISC Notes:** Used only for results that are subjective (e.g., assigned by a person or a group). Should be null for records that contain objectively collected or derived data. Examples: \"ADJUDICATION COMMITTEE\", \"STATISTICIAN\", \"DATABASE ADMINISTRATOR\", \"CLINICAL COORDINATOR\".\n---\n\n## Cross References\n\n\n\n---\n\n### [4] domains/SUPPQUAL/spec.md -- Controlled Terminology  (similarity: 0.456)\n\n### Controlled Terminology\n- [SDTM Domain Abbreviation (C66734)](../../terminology/core/general_part4.md) — RDOMAIN\n- [Evaluator (C78735)](../../terminology/core/general_part2.md) — QEVAL\n\n\n\n---\n\n### [5] domains/SUPPQUAL/assumptions.md -- overview  (similarity: 0.741)\n\n# SUPPQUAL — Assumptions\n\nThe SDTM does not allow the addition of new variables. Therefore, the Supplemental Qualifiers special-purpose dataset model is used to capture non-standard variables (NSVs) and their association to parent records in general-observation class datasets (Events, Findings, Interventions), Demographics (DM), and Subject Visits (SV). Supplemental qualifiers are represented as separate SUPP-- datasets for each dataset containing sponsor-defined variables (see Section 8.4.2, Submitting Supplemental Qualifiers in Separate Datasets).\n\nSUPP-- represents the metadata and data for each NSV/value combination. As the name suggests, this dataset is intended to capture additional qualifiers for an observation. Data that represent separate observations should be treated as separate observations. The Supplemental Qualifiers dataset is structured similarly to the RELREC dataset, in that it uses the same set of keys to identify parent records. Each SUPP-- record also includes the name of the qualifier variable being added (QNAM), the label for the variable (QLABEL), the actual value for each instance or record (QVAL), the origin (QORIG) of the value (see Section 4.1.8, Origin Metadata), and the evaluator (QEVAL) to specify the role of the individual who assigned the value (e.g., \"ADJUDICATION COMMITTEE\", \"SPONSOR\"). Controlled terminology for certain expected values for QNAM and QLABEL is included in Appendix C1, Supplemental Qualifiers Name Codes.\n\nSUPP-- datasets are also used to capture attributions. An attribution is typically an interpretation or subjective classification of 1 or more observations by a specific evaluator, such as a flag that indicates whether an observation was considered to be clinically significant. It is possible that different attributions may be necessary in some cases; SUPP-- provides a mechanism for incorporating as many attributions as are necessary. A SUPP-- dataset can contain both objective data (where values are collected or derived algorithmically) and subjective data (attributions where values are assigned by a person or committee). For objective data, the value in QEVAL will be null. For subjective data, the value in QEVAL should reflect the role of the person or institution assigning the value (e.g., \"SPONSOR\", \"ADJUDICATION COMMITTEE\").\n\nThe combined set of values for the first 6 columns (STUDYID...QNAM) should be unique for every record. That is, there should not be multiple records in a SUPP-- dataset for the same QNAM value, as it relates to IDVAR/IDVARVAL for a USUBJID in a domain. For example, if 2 individuals (e.g., the investigator and an independent adjudicator) provide a determination regarding whether an adverse event is treatment-emergent, then separate QNAM values should be used for each set of information (e.g., \"AETRTEMI\", \"AETRTEMA\"). This is necessary to ensure that reviewers can join/merge/transpose the information back with the records in the original domain without risk of losing information.\n\nA record in a SUPP-- dataset relates back to its parent record(s) via the key identified by the STUDYID, RDOMAIN, USUBJID, and IDVAR/IDVARVAL variables. An exception is SUPP-- dataset records that are related to Demographics (DM) records, where both IDVAR and IDVARVAL will be null because the key variables STUDYID, RDOMAIN, and USUBJID are sufficient to identify the unique parent record in DM (DM has 1 record per USUBJID).\n\nAll records in the SUPP-- datasets must have a value for QVAL. Transposing source variables with missing/null values may generate SUPP-- records with null values for QVAL, causing the SUPP-- datasets to be extremely large. When this happens, the sponsor must delete the records where QVAL is null prior to submission.\n\n## Submitting Supplemental Qualifiers in Separate Datasets\n\nThere is a one-to-one correspondence between a domain dataset and its Supplemental Qualifier dataset. The single SUPPQUAL dataset option that was introduced in SDTMIG v3.1 was depreca\n...(truncated)\n\n---\n\n### [6] chapters/ch08_relationships.md -- 8.4.2 Submitting Supplemental Qualifiers in Separate Datasets  (similarity: 0.730)\n\n### 8.4.2 Submitting Supplemental Qualifiers in Separate Datasets\n\nThere is a one-to-one correspondence between a domain dataset and its Supplemental Qualifier dataset. The single SUPPQUAL dataset option that was introduced in SDTMIGv3.1 was **deprecated**. The set of supplemental qualifiers for each domain is included in a separate dataset with the name SUPP-- (where \"--\" denotes the source domain which the supplemental qualifiers relate back to). For example, Demographics (DM) qualifiers would be submitted in suppdm.xpt. When data have been split into multiple datasets (see Section 4.1.7, Splitting Domains), longer names such as SUPPFAMH may be needed. In cases where data about associated persons have been collected, supplemental qualifiers for Findings About events or interventions for an associated person may need to be represented (see the SDTMIG for Associated Persons). A dataset name with the SUPP fragment (e.g., SUPPAPFAMH) would be too long. In this case only, the \"SUPP\" portion should be shortened to \"SQ\" (e.g., resulting in the dataset name SQAPFAMH).\n\nSee Section 4.5.3, Text Strings that Exceed the Maximum Length for General Observation-class Domain Variables, for information on representing data values greater than 200 characters in length.\n\n\n\n---\n\n### [7] chapters/ch08_relationships.md -- 8.3.1 RELREC Dataset Relationship Example  (similarity: 0.657)\n\n### 8.3.1 RELREC Dataset Relationship Example\n\n**Example 1:** This example illustrates RELREC records used to represent the relationship between records in 2 datasets that have a one-to-many relationship. Note that because this is a dataset-to-dataset relationship, USUBJID and IDVARVAL are null.\n\nrelrec.xpt:\n\n| Row | STUDYID | RDOMAIN | USUBJID | IDVAR | IDVARVAL | RELTYPE | RELID |\n|-----|---------|---------|---------|-------|----------|---------|-------|\n| 1 | EFC1234 | TU | | TULNKID | | ONE | 1 |\n| 2 | EFC1234 | TR | | TRLNKID | | MANY | 1 |\n\nIn the sponsor's operational database, these datasets may have existed as either separate datasets that were merged for analysis, or a single dataset that may have included observations from more than 1 general observation class (e.g., Events and Findings). The value in IDVAR must be the name of the key used to merge/join the 2 datasets. In this example, the --LNKID variable is used as the key to identify the related observations. The values for the --LNKID variable in the 2 datasets are sponsor-defined. Although other variables may also serve as a single merge key when the corresponding values for IDVAR are equal, --GRPID, --SPID, --REFID, --LNKID, or --LNKGRP are typically used for this purpose.\n\nThe variable RELTYPE identifies the type of relationship between the datasets. The allowable values are ONE and MANY (controlled terminology is expected). This information defines how a merge/join would be written, and what would be the result of the merge/join. The possible combinations are:\n\n1. **ONE and ONE.** This combination indicates that there is NO hierarchical relationship between the datasets and the records in the datasets. Only 1 record from each dataset will potentially have the same value of the IDVAR within USUBJID.\n\n2. **ONE and MANY.** This combination indicates that there IS a hierarchical (parent-child) relationship between the datasets. One record within USUBJID in the dataset identified by RELTYPE = \"ONE\" will potentially have the same value of the IDVAR with many (1 or more) records in the dataset identified by RELTYPE = \"MANY\".\n\n3. **MANY and MANY.** This combination is unusual and challenging to manage in a merge/join, and may represent a relationship that was never intended to convey a usable merge/join, such as described in Section 6.3.5.9.3, Relating PP Records to PC Records.\n\nBecause IDVAR identifies the keys that can be used to merge/join records between the datasets, --SEQ cannot be used. --SEQ only has meaning within a subject within a dataset, not across datasets.\n\n---\n\n## 8.4 Relating Non-standard Variable Values to a Parent Domain\n\nThe SDTM does not allow the addition of new variables. Therefore, the Supplemental Qualifiers special-purpose dataset model is used to capture non-standard variables (NSVs) and their association to parent records in general-observation class datasets (Events, Findings, Interventions), Demographics (DM), and Subject Visits (SV). Supplemental qualifiers are represented as separate SUPP-- datasets for each dataset containing sponsor-defined variables (see Section 8.4.2, Submitting Supplemental Qualifiers in Separate Datasets).\n\nSUPP-- represents the metadata and data for each NSV/value combination. As the name suggests, this dataset is intended to capture additional qualifiers for an observation. Data that represent separate observations should be treated as separate observations. The Supplemental Qualifiers dataset is structured similarly to the RELREC dataset, in that it uses the same set of keys to identify parent records. Each SUPP-- record also includes the name of the qualifier variable being added (QNAM), the label for the variable (QLABEL), the actual value for each instance or record (QVAL), the origin (QORIG) of the value (see Section 4.1.8, Origin Metadata), and the evaluator (QEVAL) to specify the role of the individual who assigned the value (e.g., \"ADJUDICATION COMMITTEE\", \"SPONSOR\"). Controlled terminology for certain\n...(truncated)\n\n---\n\n### [8] chapters/ch08_relationships.md -- 8.4.4 When Not to Use Supplemental Qualifiers  (similarity: 0.562)\n\n### 8.4.4 When Not to Use Supplemental Qualifiers\n\nThe following are examples of data that should **not** be submitted as supplemental qualifiers:\n\n- Subject-level objective data that fit in Subject Characteristics (SC; e.g., national origin, twin type)\n- Findings interpretations that should be added as an additional test code and result. An example of this would be a record for electrocardiogram interpretation where EGTESTCD = \"INTP\", and the same EGGRPID or EGREFID value would be assigned for all records associated with that ECG (see Section 4.5.5, Clinical Significance for Findings Observation Class Data)\n- Comments related to a record or records contained within a parent dataset. Although they may have been collected in the same record by the sponsor, comments should instead be captured in the CO special-purpose domain\n- Data not directly related to records in a parent domain. Such records should instead be captured in either a separate general observation class domain or special-purpose domain\n\n---\n\n## 8.5 Relating Comments to a Parent Domain\n\nThe Comments (CO) special-purpose domain (see Section 5.1, Comments) is used to capture unstructured free-text comments. It allows for the submission of comments related to a particular domain (e.g., Adverse Events) or those collected on separate general-comment log-style pages not associated with a domain. Comments may be related to a subject, a domain for a subject, or to specific parent records in any domain. The CO special-purpose domain is structured similarly to the Supplemental Qualifiers (SUPP--) dataset, in that it uses the same set of keys (STUDYID, RDOMAIN, USUBJID, IDVAR, and IDVARVAL) to identify related records.\n\nAll comments except those collected on log-style pages not associated with a domain are considered child records of subject data captured in domains. STUDYID, USUBJID, and DOMAIN (with the value CO) must always be populated. RDOMAIN, IDVAR, and IDVARVAL should be populated as follows:\n\n1. Comments related only to a subject in general (likely collected on a log-style CRF page/screen) would have RDOMAIN, IDVAR, IDVARVAL null, as the only key needed to identify the relationship/association to that subject is USUBJID.\n2. Comments related only to a specific domain (and not to any specific records) for a subject would populate RDOMAIN with the domain code for the domain with which they are associated. IDVAR and IDVARVAL would be null.\n3. Comments related to specific domain record(s) for a subject would populate the RDOMAIN, IDVAR, and IDVARVAL variables with values that identify the specific parent record(s).\n\nFor additional information collected further describing the comment relationship to a parent record(s) that cannot be represented using the relationship variables RDOMAIN, IDVAR and IDVARVAL:\n\n1. Values (e.g., CRF page number or name) may be placed in COREF.\n2. Timing variables (e.g., VISITNUM, VISIT) may be added to the CO special-purpose domain. See Section 5.1, Comments, assumption 5 for a complete list of identifier and timing variables that can be added to the CO special-purpose domain.\n\nAs with Supplemental Qualifiers (SUPP--) and Related Records (RELREC), --GRPID and other grouping variables can be used as the value in IDVAR to identify comments with relationships to multiple domain records. The limitation of this is that a single comment may only be related to a group of records in 1 domain (RDOMAIN can have only 1 value). If a single comment relates to records in multiple domains, the comment may need to be repeated in the CO special-purpose domain to facilitate the understanding of the relationships.\n\nSee examples for CO data in Section 5.1, Comments.\n\n---\n\n## 8.6 Where Data Belong\n\n\n\n---\n\n### [9] model/06_relationship_datasets.md -- 6.2 Supplemental Qualifiers (SUPP--)  (similarity: 0.730)\n\n## 6.2 Supplemental Qualifiers (SUPP--)\n\n**Structure:** One record per supplemental qualifier per related parent domain record(s)\n\nThe Supplemental Qualifiers datasets provide a mechanism for including non-standard variables that cannot be accommodated in the standard domain datasets.\n\n### Variables (13 variables)\n\n| # | Variable | Label | Type | Role | Notes |\n|---|----------|-------|------|------|-------|\n| 1 | STUDYID | Study Identifier | Char | Identifier | |\n| 2 | RDOMAIN | Related Domain Abbreviation | Char | Identifier | 2-character abbreviation for the domain of the parent record(s) |\n| 3 | USUBJID | Unique Subject Identifier | Char | Identifier | |\n| 4 | APID | Associated Persons Identifier | Char | Identifier | |\n| 5 | POOLID | Pool Identifier | Char | Identifier | |\n| 6 | SPDEVID | Sponsor Device Identifier | Char | Identifier | |\n| 7 | IDVAR | Identifying Variable | Char | Identifier | Identifying variable in the parent dataset that identifies the related record(s) |\n| 8 | IDVARVAL | Identifying Variable Value | Char | Identifier | Value of identifying variable of the parent record(s) |\n| 9 | QNAM | Qualifier Variable Name | Char | Topic | 8-character name for the supplemental qualifier |\n| 10 | QLABEL | Qualifier Variable Label | Char | Synonym Qualifier | Human-readable label associated with QNAM |\n| 11 | QVAL | Data Value | Char | Result Qualifier | The actual data value |\n| 12 | QORIG | Origin | Char | Record Qualifier | Source of the data: \"CRF\", \"ASSIGNED\", \"DERIVED\" |\n| 13 | QEVAL | Evaluator | Char | Record Qualifier | Role of the evaluator |\n\n### Naming Convention\n\nSeparate Supplemental Qualifier datasets of the form `supp--.xpt` are required (e.g., `suppae.xpt`, `suppcm.xpt`). The RDOMAIN variable identifies which parent domain the supplemental data belongs to.\n\n---\n\n\n\n---\n\n### [10] chapters/ch08_relationships.md -- Key Rules  (similarity: 0.673)\n\n### Key Rules\n\n- A record in a SUPP-- dataset relates back to its parent record(s) via the key identified by the STUDYID, RDOMAIN, USUBJID, and IDVAR/IDVARVAL variables. An exception is SUPP-- dataset records that are related to Demographics (DM) records, where both IDVAR and IDVARVAL will be null because STUDYID, RDOMAIN, and USUBJID are sufficient to identify the unique parent record in DM (DM has 1 record per USUBJID)\n- All records in the SUPP-- datasets must have a value for QVAL. Transposing source variables with missing/null values may generate SUPP-- records with null values for QVAL, causing the SUPP-- datasets to be extremely large. When this happens, the sponsor must delete the records where QVAL is null prior to submission\n- See Section 4.5.3, Text Strings that Exceed the Maximum Length for General Observation-class Domain Variables, for information on representing data values greater than 200 characters in length\n- See Appendix C1, Supplemental Qualifiers Name Codes, for controlled terminology for QNAM and QLABEL for some of the most common supplemental qualifiers. Additional QNAM values may be created as needed, following the guidelines provided in the CDISC Notes for QVAL\n\n\n\n---\n\n### [11] chapters/ch04_general_assumptions.md -- 4.5.3 Text Strings that Exceed the Maximum Length for General Observation-class Domain Variables  (similarity: 0.535)\n\n### 4.5.3 Text Strings that Exceed the Maximum Length for General Observation-class Domain Variables\n\n#### 4.5.3.1 Test Name (--TEST) Greater than 40 Characters\n\nSponsors may have test descriptions (--TEST) longer than 40 characters in their operational database. Because the --TEST variable is meant to serve as a label for a --TESTCD when a Findings dataset is transposed to a more horizontal format, the length of --TEST is limited to 40 characters (except as noted below) to conform to the limitations of the SAS V5 transport file format. Therefore, sponsors have the choice to either insert the first 40 characters or a text string abbreviated to 40 characters in --TEST. Sponsors have the following options for including the full description for these variables in the study metadata:\n\n- If the annotated CRF contains the full text, provide a reference to the aCRF page containing the full test description in the Define-XML document origin definition for --TEST.\n- If the annotated CRF does not specify the full text, then the full text should be documented in the Define-XML document and/or other submission materials (e.g., the clinical study data reviewer's guide).\n\nThis convention should also be applied to the qualifier value label (QLABEL) in Supplemental Qualifiers (SUPP--) datasets.\n\n**Exception — IETEST in IE and TI domains:** IETEST values in the Inclusion/Exclusion Criteria Not Met (IE) and Trial Inclusion/Exclusion Criteria (TI) domains are exceptions to the 40-character rule and are limited to 200 characters, because these are not expected to be transformed to column labels. Values of IETEST that exceed 200 characters should be described in study metadata as per the convention above.\n\n#### 4.5.3.2 Text Strings Greater than 200 Characters in Other Variables\n\nSome sponsors may collect data values longer than 200 characters for some variables. Because of the current requirement for the SAS V5 transport file format, it is not possible to store long text strings using only 1 variable. Therefore, the SDTMIG has defined conventions for storing long text strings using multiple variables.\n\nFor general observation-class variables and supplemental qualifiers (i.e., non-standard variables, NSVs), the conventions are as follows:\n\n- The **first 200 characters** of text should be stored in the parent domain variable and each additional 200 characters of text should be stored in a record in the SUPP-- dataset (see Section 8.4, Relating Non-standard Variable Values to a Parent Domain)\n- When splitting a text string into several records, the text should be **split between words** to improve readability\n- When the text longer than 200 characters is for a supplemental qualifier, the **first QNAM should describe the NSV without any numeric suffix**\n- The value for QNAMs for additional text (>200 characters) should contain a **sequential variable name formed by appending a 1-digit integer, beginning with 1**, to the original domain variable name\n- The value for **QLABEL should be the original domain variable label**:\n  - The reason a digit integer or suffix is not appended to the label is because the long text string represents a single value for a variable; the physical representation (SAS V5 transport file format) does not change the concept described by the label\n  - This is conceptually different from when there are multiple values for a non-result qualifier variable and values are individually stored in SUPP-- (in that case, both QNAM and QLABEL must be uniquely named per Section 4.2.8.3, Multiple Values for a Non-result Qualifier Variable)\n  - In cases where the standard domain variable name is already 8 characters in length, sponsors should **replace the last character with a digit** when creating values for QNAM; for example, for Other Action Taken in Adverse Events (AEACNOTH), values for QNAM for the SUPPAE records would have the values AEACNOT1, AEACNOT2, and so on\n\n**Example 1 (mh.xpt / suppmh.xpt):** MHTERM was longer than 200 characte\n...(truncated)\n\n---\n\n### [12] chapters/ch08_relationships.md -- 8.4.1 Supplemental Qualifiers (SUPP--)  (similarity: 0.741)\n\n### 8.4.1 Supplemental Qualifiers (SUPP--)\n\nsupp--.xpt, Supplemental Qualifiers for [domain name] — Relationship. One record per supplemental qualifier per related parent domain record(s), Tabulation.\n\n| Variable Name | Variable Label | Type | Controlled Terms, Codelist or Format | Role | CDISC Notes | Core |\n|--------------|----------------|------|--------------------------------------|------|-------------|------|\n| STUDYID | Study Identifier | Char | | Identifier | Study identifier of the parent record(s). | Req |\n| RDOMAIN | Related Domain Abbreviation | Char | (DOMAIN) | Identifier | Two-character abbreviation for the domain of the parent record(s). | Req |\n| USUBJID | Unique Subject Identifier | Char | | Identifier | Identifier used to uniquely identify a subject across all studies for all applications or submissions involving the product. This is the value of USUBJID in the parent record(s). | Req |\n| IDVAR | Identifying Variable | Char | * | Identifier | Identifying variable in the dataset that identifies the related record(s). Examples: --SEQ, --GRPID. | Exp |\n| IDVARVAL | Identifying Variable Value | Char | | Identifier | Value of identifying variable of the parent record(s). | Exp |\n| QNAM | Qualifier Variable Name | Char | * | Topic | The short name of the qualifier variable, which is used as a column name in a domain view with data from the parent domain. The value in QNAM cannot be longer than 8 characters, nor can it start with a number (e.g., \"1TEST\" is not valid). QNAM cannot contain characters other than letters, numbers, or underscores. This will often be the column name in the sponsor's operational dataset. | Req |\n| QLABEL | Qualifier Variable Label | Char | | Synonym Qualifier | This is the long name or label associated with QNAM. The value in QLABEL cannot be longer than 40 characters. This will often be the column label in the sponsor's original dataset. | Req |\n| QVAL | Data Value | Char | | Result Qualifier | Result of, response to, or value associated with QNAM. A value for this column is required; no records can be in SUPP-- with a null value for QVAL. | Req |\n| QORIG | Origin | Char | | Record Qualifier | Because QVAL can represent a mixture of collected (on a CRF), derived, or assigned items, QORIG is used to indicate the origin of this data. Examples: \"CRF\", \"Assigned\", \"Derived\". See Section 4.1.8, Origin Metadata. | Req |\n| QEVAL | Evaluator | Char | (EVAL) | Record Qualifier | Used only for results that are subjective (e.g., assigned by a person or a group). Should be null for records that contain objectively collected or derived data. Examples: \"ADJUDICATION COMMITTEE\", \"STATISTICIAN\", \"DATABASE ADMINISTRATOR\", \"CLINICAL COORDINATOR\". | Exp |\n\n^1^ In this column, an asterisk (*) indicates that the variable may be subject to controlled terminology. CDISC/NCI codelist values are enclosed in parentheses.\n\n\n\n---\n\n### [13] VARIABLE_INDEX.md -- SUPPQUAL — Supplemental Qualifiers for [domain name] (Relationship)  (similarity: 0.669)\n\n### SUPPQUAL — Supplemental Qualifiers for [domain name] (Relationship)\n\n| 变量名 | Label | Type | Role | Core | CT |\n|--------|-------|------|------|------|----|\n| QNAM | Qualifier Variable Name | Char | Topic | Req | — |\n| QLABEL | Qualifier Variable Label | Char | Synonym Qualifier | Req | — |\n| QVAL | Data Value | Char | Result Qualifier | Req | — |\n| QORIG | Origin | Char | Record Qualifier | Req | — |\n| QEVAL | Evaluator | Char | Record Qualifier | Exp | C78735 |\n\n\n\n---\n\n### [14] chapters/ch04_general_assumptions.md -- 4.5.4 Evaluators in the Interventions and Events Observation Classes  (similarity: 0.583)\n\n### 4.5.4 Evaluators in the Interventions and Events Observation Classes\n\nBecause observations may originate from more than 1 source (e.g., investigator, independent assessor), observations recorded in the Findings class include the --EVAL qualifier. For the Interventions and Events observation classes, which do not include the --EVAL variable, all data are assumed to be attributed to the principal investigator.\n\nThe QEVAL variable can be used to describe the evaluator for any data item in a SUPP-- dataset (see Section 8.4.1, Supplemental Qualifiers -- SUPP-- Datasets), but is not required when the data are objective.\n\nFor observations that have primary and secondary evaluations of specific qualifier variables, sponsors should put data from the primary evaluation into the standard domain dataset and data from the secondary evaluation into the Supplemental Qualifier datasets (SUPP--). Within each SUPP-- record, the value for QNAM should be formed by appending a \"1\" to the corresponding standard domain variable name. In cases where the standard domain variable name is already 8 characters in length, sponsors should replace the last character with a \"1\" (incremented for each additional attribution).\n\n**Example:** An adjudication committee evaluated an adverse event. The evaluations of the adverse event by the primary investigator were represented in the standard AE dataset. The evaluations of the adjudication committee were represented in SUPPAE. See Section 8.4, Relating Non-standard Variable Values to a Parent Domain. Note that the QNAM for the \"Relationship to Non-study Treatment\" supplemental qualifier is AERELNS1, rather than AERELNST1, because AERELNST is already 8 characters in length.\n\nsuppae.xpt:\n\n| Row | STUDYID | RDOMAIN | USUBJID | IDVAR | IDVARVAL | QNAM | QLABEL | QVAL | QORIG | QEVAL |\n|-----|---------|---------|---------|-------|----------|------|--------|------|-------|-------|\n| 1 | 12345 | AE | 99-123 | AESEQ | 3 | AESEV1 | Severity/ Intensity | MILD | CRF | ADJUDICATION COMMITTEE |\n| 2 | 12345 | AE | 99-123 | AESEQ | 3 | AEREL1 | Causality | POSSIBLY RELATED | CRF | ADJUDICATION COMMITTEE |\n| 3 | 12345 | AE | 99-123 | AESEQ | 3 | AERELNS1 | Relationship to Non-study Treatment | Possibly related to aspirin use | CRF | ADJUDICATION COMMITTEE |\n\n\n\n---\n\n### [15] chapters/ch04_general_assumptions.md -- 4.1.9 Assigning Natural Keys in the Metadata  (similarity: 0.501)\n\n### 4.1.9 Assigning Natural Keys in the Metadata\n\nSection 3.2, Using the CDISC Domain Models in Regulatory Submissions — Dataset Metadata, indicates that a sponsor should include in the metadata the variables that contribute to the natural key for a domain. In a case where a dataset includes a mix of records with different natural keys, the natural key that provides the most granularity is the one that should be provided. The following example illustrates how to do this, and include a case where a Supplemental Qualifier variable is referenced because it forms part of the natural key.\n\n**Musculoskeletal System Findings (MK) Domain Example**\n\nSponsor A chooses the following natural key for the MK domain:\n\nSTUDYID, USUBJID, VISITNUM, MKTESTCD\n\nSponsor B collects data in such a way that the location (MKLOC and MKLAT) and method (MKMETHOD) variables need to be included in the natural key to identify a unique row. Sponsor B then defines the following natural key for the MK domain:\n\nSTUDYID, USUBJID, VISITNUM, MKTESTCD, MKLOC, MKLAT, MKMETHOD\n\nIn certain instances a Supplemental Qualifier variable (i.e., a QNAM value; see Section 8.4, Relating Non-standard Variable Values to a Parent Domain) might also contribute to the natural key of a record, and therefore needs to be referenced as part of the natural key for a domain. The important concept here is that a domain is not limited by physical structure. A domain may comprise more than 1 physical dataset (e.g., the main domain dataset and its associated Supplemental Qualifiers dataset). Supplemental Qualifier variables should be referenced in the natural key by using a 2-part name. The word QNAM must be used as the first part of the name to indicate that the contributing variable exists in a domain-specific SUPP--; the second part is the value of QNAM that ultimately becomes a column reference when the SUPPQUAL records are joined on to the main domain dataset (e.g., QNAM.XVAR when the SUPP-- record has a QNAM of \"XVAR\").\n\nIn this example, sponsor B might have collected data that used different imaging methods, using imaging devices with different makes and models, and using different hand positions. The sponsor considers the make and model information and hand position to be essential data that contributes to the uniqueness of the test result, and so includes a device identifier (SPDEVID) in the data and creates a Supplemental Qualifier variable for hand position (QNAM = \"MKHNDPOS\"). The natural key is then defined as follows:\n\n    STUDYID, USUBJID, SPDEVID, VISITNUM, MKTESTCD, MKLOC, MKLAT, MKMETHOD,\n    QNAM.MKHNDPOS\n\nwhere the notation \"QNAM.MKHNDPOS\" means the Supplemental Qualifier whose QNAM is \"MKHNDPOS\". This approach becomes very useful in a Findings domain when --TESTCD values are \"generic\" and rely on other variables to completely describe the test. The use of generic test codes helps to create distinct lists of manageable controlled terminology for --TESTCD. In studies where multiple repetitive tests or measurements are being made, for example in a rheumatoid arthritis study where repetitive measurements of bone erosion in the hands and wrists might be made using both X-ray and MRI equipment, the generic MKTEST \"Sharp/Genari Bone Erosion Score\" would be used in combination with other variables to fully identify the result.\n\nTaking just the phalanges, a sponsor might want to express the following in a test in order to make it unique:\n\n- Left or right hand\n- Phalangeal joint position (which finger, which joint)\n- Rotation of the hand\n- Method of measurement (x-ray or MRI)\n- Machine make and model\n\nWhen CDISC Controlled Terminology for a test is not available, and a sponsor creates --TEST and --TESTCD values, trying to encapsulate all information about a test within a unique value of a --TESTCD is not a recommended approach for the following reasons:\n\n- It results in the creation of a potentially large number of test codes.\n- The 8-character values of --TESTCD become less intui\n...(truncated)",
    "off_answer": "## SUPPQUAL — Supplemental Qualifiers\n\n**SUPPQUAL** (Supplemental Qualifiers) is a special-purpose relationship dataset model used to capture **non-standard variables (NSVs)** that cannot be accommodated within the standard SDTM domain datasets. Each supplemental qualifier record stores the metadata and data for one NSV/value combination and links back to a parent record via key variables.\n\n**[Source: model/06_relationship_datasets.md]**\n\n### When to Use SUPPQUAL\n\nSUPPQUAL must be used whenever you have sponsor-defined variables that need to be attached to records in a standard domain dataset.",
    "on_v2_answer": "**SUPPQUAL** (Supplemental Qualifiers) is a special‑purpose dataset model used to capture **non‑standard variables (NSVs)** that cannot be added to the fixed SDTM domain structures. It stores each NSV/value combination as a separate record and links back to the parent record(s) via keys. **[Source: domains/SUPPQUAL/assumptions.md, chapters/ch08_relationships.md, model/06_relationship_datasets.md]**\n\n### Why Supplemental Qualifiers Instead of Adding Variables?\nThe SDTM **does not allow the addition of new variables** to standard domains. Therefore, any sponsor‑defined variable that is not part of the SDTM domain specification must be represented in the Supplemental Qualifier dataset (`SUPP--`). This ensures data are submitted without altering the standard model. **[Source: chapters/ch08_relationships.md §8.4]**\n\n### Structure and Identification\nEach `SUPP--` record contains:\n- **Identifying keys:** `STUDYID`, `RDOMAIN` (parent domain), `USUBJID`, `IDVAR` (e.g., `--SEQ`, `--GRPID`), `IDVARVAL`.\n- **Qualifier metadata:** `QNAM` (8‑character variable name), `QLABEL` (label, ≤40 characters), and `QVAL` (the actual value; required – no nulls allowed).\n- **Origin and evaluator:** `QORIG` (source of data, e.g., “CRF”, “Derived”) and `QEVAL` (evaluator role if the value is subjective; otherwise null).\n\nSeparate physical datasets (`supp--.xpt`) are created for each parent domain (e.g., `suppae.xpt`). **[Source: domains/SUPPQUAL/spec.md, model/06_relationship_datasets.md, VARIABLE_INDEX.md]**\n\n### When to Use Supplemental Qualifiers\nSupplemental qualifiers are appropriate in the following situations:\n\n1. **Any sponsor‑defined variable** that adds information to a standard domain record but is not part of the SDTM variable list.  \n   *Example:* A custom flag like “clinically significant” that does not fit as a standard qualifier. **[Source: chapters/ch08_relationships.md §8.4]**\n2. **Attributions from a secondary evaluator** (e.g., an adjudication committee). The primary evaluation stays in the main domain; secondary evaluations are placed in `SUPP--` with `QNAM` formed by appending “1” (or replacing the last character with “1” if the variable name is already 8 characters). `QEVAL` identifies the evaluator. **[Source: chapters/ch04_general_assumptions.md §4.5.4, chapters/ch08_relationships.md §8.4]**\n3. **Long text strings exceeding 200 characters**. The first 200 characters go in the parent domain variable; each additional 200‑character block is split into a `SUPP--` record with a sequential numeric suffix (e.g., `MHTERM` → `MHTER1`, `MHTER2`, …). The `QLABEL` remains the original variable label. **[Source: chapters/ch04_general_assumptions.md §4.5.3.2]**\n4. **Variables that form part of the natural key** but cannot be accommodated in the main domain. They can be referenced in the metadata as `QNAM.<varname>`. **[Source: chapters/ch04_general_assumptions.md §4.1.9]**\n\n### When **Not** to Use Supplemental Qualifiers\nData that belong elsewhere should **not** be placed in `SUPP--`:\n- Subject‑level objective data that fit in **Subject Characteristics (SC)** (e.g., national origin).\n- Findings interpretations that should be represented as **additional test codes** in the same Findings domain (e.g., `EGTESTCD = “INTP”` for ECG interpretation).\n- **Comments** – these go in the **CO** special‑purpose domain.\n- Data that represent **separate observations** (not attributes of a parent record) – they should be in their own domain.  \n**[Source: chapters/ch08_relationships.md §8.4.4]**\n\nIn summary, `SUPPQUAL` is the SDTM mechanism for extending domains without violating the standard model, used exclusively for non‑standard variables that are direct qualifiers of existing observations, and not for standalone data or comments."
  },
  {
    "id": "q17",
    "category": "mixed",
    "question": "How are date and time variables formatted in SDTM and what suffix do they use?",
    "expected_facts": [
      "ISO 8601",
      "DTC"
    ],
    "on_v2_fact_misses": [
      "ISO 8601"
    ],
    "retrieved_context": "### [1] chapters/ch04_general_assumptions.md -- 4.4.1 Formats for Date/Time Variables  (similarity: 0.763)\n\n### 4.4.1 Formats for Date/Time Variables\n\nAn SDTM DTC variable may include data that is represented in ISO 8601 format as a complete date/time, a partial date/time, or an incomplete date/time.\n\nThe SDTMIG template uses ISO 8601 for calendar dates and times of day, which are expressed as follows:\n\n`YYYY-MM-DDThh:mm:ss(.n+)?(((+|-)hh:mm)|Z)?`\n\nwhere:\n\n- [YYYY] = four-digit year\n- [MM] = two-digit representation of the month (01-12, 01=January, etc.)\n- [DD] = two-digit day of the month (01 through 31)\n- [T] = (time designator) indicates time information follows\n- [hh] = two digits of hour (00 through 23) (am/pm is NOT allowed)\n- [mm] = two digits of minute (00 through 59)\n- [ss] = two digits of second (00 through 59)\n\nThe last two components, indicated in the format pattern with a question mark, are optional:\n\n- [(.n+)?] = optional fractions of seconds\n- [(((+|-)hh:mm)|Z)?] = optional time zone\n\nOther characters defined for use within the ISO 8601 standard are:\n\n- [-] (hyphen): to separate the time elements \"year\" from \"month\" and \"month\" from \"day\" and to represent missing date components\n- [:] (colon): to separate the time elements \"hour\" from \"minute\" and \"minute\" from \"second\"\n- [/] (solidus): to separate components in the representation of date/time intervals\n- [P] (duration designator): precedes the components that represent the duration\n\n> **Spaces are not allowed in any ISO 8601 representations.**\n\nKey aspects of the ISO 8601 standard are as follows:\n\n- ISO 8601 represents dates as a text string using the notation YYYY-MM-DD.\n- ISO 8601 represents times as a text string using the notation hh:mm:ss(.n+)?(((+|-)hh:mm)|Z)?.\n- The SDTM and the SDTMIG require use of the ISO 8601 **extended format**, which requires hyphen delimiters for date components and colon delimiters for time components. The ISO 8601 basic format, which does not require delimiters, should not be used in SDTM datasets.\n- When a date is stored with a time in the same variable (as a date/time), the date is written in front of the time and the time is preceded with \"T\" using the notation YYYY-MM-DDThh:mm:ss (e.g., 2001-12-26T00:00:01).\n\nImplementation of the ISO 8601 standard means that date/time variables are character/text data types. The SDTM fragment employed for date/time character variables is **DTC**.\n\n\n\n---\n\n### [2] model/01_concepts_and_terms.md -- 2.1 Model Concepts and Terms — Variables  (similarity: 0.615)\n\n## 2.1 Model Concepts and Terms — Variables\n\nThe SDTM provides a general framework for describing the organization of information collected during human and animal studies. The model is built around the concept of **observations**, which consist of discrete pieces of information collected during a study. Observations normally correspond to rows in a dataset. A **domain** is a collection of observations on a particular topic. For example, \"Subject 101 had an adverse event of mild nausea starting on study day 6\" is an observation belonging to the Adverse Events domain in a clinical trial.\n\nThe primary purpose of the SDTM is to represent data about study subjects — which may be humans or animals — or medical devices. The SDTM includes a general model for representing data in 3 \"general observation\" classes. Within those classes, data are grouped by topic into domains, represented in separate datasets.\n\n### Concept Map: Relationships Between SDTM Domains\n\n```mermaid\ngraph TD\n    %% Key:\n    %% Plain rounded box = Group of individually specified datasets\n    %% Filled box (:::extensible) = Extensible set of domains based on a common model\n\n    SDTM[\"Study Data TabulationModel\"]\n\n    SDTM -->|includes| SD[\"Domains forSubject Data\"]\n    SDTM -->|includes| AP[\"Domains forAssociatedPersons Data\"]\n    SDTM -->|includes| SL[\"Domains forStudy-Level Data\"]\n    SDTM -->|includes| RD[\"RelationshipDatasets\"]:::extensible\n\n    SD -->|include| GOC[\"GeneralObservation ClassDomains\"]:::extensible\n    SD -->|include| SPD[\"SpecialPurposeDomains\"]:::extensible\n\n    GOC -->|include| EV[\"EventsDomains\"]:::extensible\n    GOC -->|include| IV[\"InterventionsDomains\"]:::extensible\n    GOC -->|include| FI[\"FindingsDomains\"]:::extensible\n\n    FI -->|subtype of| FA[\"Findings AboutDomains\"]:::extensible\n\n    SL -->|include| TDM[\"Trial DesignModel\"]:::extensible\n    SL -->|include| SRS[\"Study ReferenceDatasets\"]\n\n    classDef extensible fill:#c8e6c9,stroke:#388e3c,color:#1b5e20\n```\n\n> **Key:** Plain box = Group of individually specified datasets. Green filled box = Extensible set of domains based on a common model.\n\n### Variable Roles\n\nAll datasets are structured as flat files with rows representing observations and columns representing variables; each dataset is described by metadata definitions that provide information about the variables used in the dataset. Metadata are described in the CDISC Define-XML specification.\n\nEach observation consists of a series of named variables. Each variable, which normally corresponds to a column in a dataset, can be classified according to its **role**. A role describes the type of information conveyed by the variable about each distinct observation and how it can be used. There are variables which play different roles in different datasets. This is most common for variables which appear in both trial design datasets and general observation class datasets. For example, ARMCD is the topic variable in Trial Arms (TA), but a record qualifier in Demographics (DM) and Trial Visits (TV). Variables which appear in multiple general observation classes have the same role, although the variable qualified by a variable qualifier or synonym qualifier can be different in different general observation classes. For example, --MODIFY qualifies --TRT in interventions, --TERM in events, and --ORRES in findings.\n\nSDTM variables can be classified into 5 major roles:\n\n1. **Identifier variables** — identify the study, subject, domain, and sequence number of the record\n2. **Topic variables** — specify the focus of the observation (e.g., the name of a lab test)\n3. **Timing variables** — describe the timing of an observation (e.g., start date, end date)\n4. **Qualifier variables** — include additional illustrative text or numeric values that describe the results or additional traits of the observation (e.g., units, descriptive adjectives)\n5. **Rule variables** — describe conditions for starting, ending, branching, or looping in the Trial Design Mode\n...(truncated)\n\n---\n\n### [3] chapters/ch04_general_assumptions.md -- 4.3.7 Use of \"Yes\" and \"No\" Values  (similarity: 0.604)\n\n### 4.3.7 Use of \"Yes\" and \"No\" Values\n\nVariables where the response is \"Yes\" or \"No\" (\"Y\" or \"N\") should normally be populated for both \"Y\" and \"N\" responses. This eliminates confusion regarding whether a blank response indicates \"N\" or is a missing value.\n\nHowever, some variables are collected or derived in a manner that allows only 1 response, such as when a single checkbox indicates \"Yes\". In such situations, where it is unambiguous to populate only the response of interest, it is permissible to populate only 1 value (\"Y\" or \"N\") and leave the alternate value blank. An example of when it would be acceptable to use only a value of \"Y\" would be for Last Observation Before Exposure Flag (--LOBXFL), where \"N\" is not necessary to indicate that a value is not the last observation before exposure.\n\n> **Note:** Permissible values for variables with controlled terms of \"Y\" or \"N\" may be extended to include \"U\" or \"NA\" if it is the sponsor's practice to explicitly collect or derive values indicating \"Unknown\" or \"Not Applicable\" for that variable.\n\n---\n\n## 4.4 Actual and Relative Time Assumptions\n\nTiming variables (SDTM Section 3.1.5, Timing Variables for All Classes) are an essential component of all SDTM subject-level domain datasets. In general, all domains based on the 3 general observation classes should have at least 1 timing variable. In the Events or Interventions general observation class, this could be the start date of the event or intervention. In the Findings observation class, where data are usually collected at multiple visits, at least 1 timing variable must be used.\n\nThe SDTMIG requires dates and times of day to be stored according to the international standard ISO 8601 (http://www.iso.org). ISO 8601 provides a text-based representation of dates and/or times, intervals of time, and durations of time.\n\n\n\n---\n\n### [4] chapters/ch04_general_assumptions.md -- 4.2.1 Variable-Naming Conventions  (similarity: 0.580)\n\n### 4.2.1 Variable-Naming Conventions\n\nSDTM variables are named according to a set of conventions, using fragment names (see Appendix D, CDISC Variable-naming Fragments). Variables with names ending in \"CD\" are \"short\" versions of associated variables that do not include the \"CD\" suffix (e.g., --TESTCD is the short version of --TEST).\n\nValues of --TESTCD must be limited to 8 characters and cannot start with a number, nor can they contain characters other than letters, numbers, or underscores. This is to avoid possible incompatibility with SAS v5 transport files. This limitation will be in effect until the use of other formats (e.g., Dataset-XML) becomes acceptable to regulatory authorities.\n\nBecause QNAM serves the same purpose as --TESTCD within supplemental qualifier datasets, values of QNAM are subject to the same restrictions as values of --TESTCD.\n\nValues of other \"CD\" variables are **not** subject to the same restrictions as --TESTCD:\n\n- ETCD (the companion to ELEMENT) and TSPARMCD (the companion to TSPARM) are limited to 8 characters and do not have the character restrictions that apply to --TESTCD. These values should be short for ease of use in programming, but it is not expected that they will need to serve as variable names.\n- ARMCD is limited to 20 characters and does not have the character restrictions that apply to --TESTCD. The maximum length of ARMCD is longer than for other \"short\" variables to accommodate the kind of values that are likely to be needed for crossover trials. For example, if ARMCD values for a 7-period crossover were constructed using 2-character abbreviations for each treatment and separating hyphens, the length of ARMCD values would be 20. This same rule applies to the ACTARMCD variable.\n\nVariable descriptive names (labels), up to 40 characters, should be provided as data variable labels for all variables, including Supplemental Qualifier variables.\n\nUse of variable names (other than domain prefixes), formats, decodes, terminology, and data types for the same type of data (even for custom domains and Supplemental Qualifiers) should be consistent within and across studies within a submission.\n\n#### 4.2.1.1 --TEST and --TESTCD Conventions (Findings)\n\n- --TESTCD: standardized or dictionary-derived short sequence, up to 8 characters\n- --TEST: full descriptive name of the test\n- Both are subject to controlled terminology where available\n\n#### 4.2.1.2 --TRT Conventions (Interventions)\n\n- Contains the verbatim name of the treatment, drug, procedure, or therapy\n- Should represent the name as reported on the CRF\n\n#### 4.2.1.3 --TERM Conventions (Events)\n\n- Contains the verbatim or prespecified name of the event\n- Should represent the term as reported on the CRF\n\n\n\n---\n\n### [5] chapters/ch01_introduction.md -- whole_file  (similarity: 9.647)\n\n# SDTMIG v3.4 — Chapter 1: Introduction\n\nSource: SDTMIG v3.4, Section 1 (Pages 7-12)\n\n## 1.1 Purpose\n\nThe Study Data Tabulation Model Implementation Guide for Human Clinical Trials (SDTMIG) Version 3.4 has been prepared by the Submissions Data Standards (SDS) team of the Clinical Data Interchange Standards Consortium (CDISC). Like its predecessors, v3.4 is intended to guide the organization, structure, and format of standard clinical trial tabulation datasets submitted to a regulatory authority. Version 3.4 supersedes all prior versions of the SDTMIG.\n\nThe SDTMIG should be used in close concert with Version 2.0 of the CDISC Study Data Tabulation Model (SDTM), which describes the general conceptual model for representing clinical study data that is submitted to regulatory authorities and should be read prior to reading the SDTMIG. SDTMIG Version 3.4 provides specific domain models, assumptions, business rules, and examples for preparing standard tabulation datasets that are based on the SDTM.\n\nThis document is intended for companies and individuals involved in the collection, preparation, and analysis of clinical data that will be submitted to regulatory authorities.\n\n## 1.2 Organization of this Document\n\n| Section | Title | Description |\n|---------|-------|-------------|\n| 1 | Introduction | Overall introduction to v3.4 models; changes from prior versions |\n| 2 | Fundamentals of the SDTM | Basic concepts of the SDTM; how to use SDTMIG with SDTM |\n| 3 | Submitting Data in Standard Format | How to describe metadata for regulatory submissions; conformance assessment |\n| 4 | Assumptions for Domain Models | Basic concepts, business rules, and assumptions before applying domain models |\n| 5 | Models for Special-purpose Domains | Special-purpose domains: Demographics, Comments, Subject Visits, Subject Elements |\n| 6 | Domain Models Based on the General Observation Classes | Specific metadata models based on the 3 GOC, with assumptions and examples |\n| 7 | Trial Design Model Datasets | Domains for trial-level data, with assumptions and examples |\n| 8 | Representing Relationships and Data | How to represent relationships between domains, datasets, and records |\n| 9 | Study References | Structures for study-specific terminology used in subject data |\n| 10 | Appendices | Additional background material and supplemental material |\n\n## 1.3 Relationship to Prior CDISC Documents\n\nThis document, together with the SDTM, represents the most recent version of the CDISC submission data domain models. All updates are intended to be backward-compatible. A detailed list of changes between versions is provided in Appendix E, Revision History.\n\nVersion 3.1 was the first fully implementation-ready version of the CDISC submission data standards that was directly referenced by the US FDA for use in human clinical studies involving drug products. However, future improvements and enhancements will continue to be made as sponsors gain more experience submitting data in this format. Therefore, CDISC will be preparing regular updates to the implementation guide to provide corrections, clarifications, additional domain models, examples, business rules, and conventions for using the standard domain models. Because CDISC will produce further documentation for Controlled Terminology as separate publications, sponsors are encouraged to check the CDISC website (https://www.cdisc.org/standards/terminology/controlled-terminology) frequently for additional information. See Section 4.3, Coding and Controlled Terminology Assumptions, for the most up-to-date information on applying Controlled Terminology.\n\nThe most significant changes since SDTMIG v3.3 include:\n\n- Expanded the scope of the DA domain to include study products in addition to study drugs\n- Grouped specimen-based lab domains (e.g., CP, GF, LB) in Sections 6.3.5.1-6.3.5.9 and added a generic specification\n- Expanded the scope of the IS domain for assessments of antigen-induced humoral or cell-mediated immune r\n...(truncated)\n\n---\n\n### [6] domains/VS/spec.md -- VSDTC  (similarity: 0.640)\n\n### VSDTC\n- **Order:** 32\n- **Label:** Date/Time of Measurements\n- **Type:** Char\n- **Controlled Terms:** ISO 8601 datetime or interval\n- **Role:** Timing\n- **Core:** Exp\n- **CDISC Notes:** Date and time of the vital signs assessment represented in ISO 8601 character format.\n\n\n\n---\n\n### [7] chapters/ch02_fundamentals.md -- whole_file  (similarity: 9.428)\n\n# SDTMIG v3.4 — Chapter 2: Fundamentals of the SDTM\n\nSource: SDTMIG v3.4, Section 2 (Pages 13-20)\n\n## Section 1 Context (Reference Material)\n\nThe following statements from Section 1 of the SDTMIG provide reference context for the fundamentals presented in this chapter.\n\n### From §1.2 Organization of this Document (p7)\n\nThis document is organized into the following sections:\n\n### From §1.4 How to Read this Implementation Guide (p9)\n\nThe following guides are available at https://www.cdisc.org/standards/foundational/sdtmig:\n\n### From §1.4.1 How to Read a Domain Specification (pp 9-10)\n\n- Variable Label: A longer name for the variable\n- This may be the same as the label in the SDTM, or it may be customized for the domain.\n- The name of an external code system (e.g., MedDRA) will be listed in plain text.\n\n## 2.1 Observations and Variables\n\nThe SDTMIG for Human Clinical Trials is based on the SDTM's general framework for organizing clinical trial information that is to be submitted to regulatory authorities. The SDTM is built around the concept of **observations** collected about subjects who participated in a clinical study. Each observation can be described by a series of variables, corresponding to a row in a dataset. Each variable can be classified according to its **role**.\n\n### Variable Roles (5 major roles)\n\n1. **Identifier variables** — identify the study, subject, domain, and sequence number of the record\n2. **Topic variables** — specify the focus of the observation (e.g., the name of a lab test)\n3. **Timing variables** — describe the timing of an observation (e.g., start date and end date)\n4. **Qualifier variables** — include additional illustrative text or numeric values that describe the results or additional traits\n5. **Rule variables** — describe the condition to start, end, branch, or loop in the Trial Design Model\n\n### Qualifier Variable Subclasses\n\n| Subclass | Purpose | Examples |\n|----------|---------|----------|\n| **Grouping Qualifiers** | Group together a collection of observations within the same domain | --CAT, --SCAT |\n| **Result Qualifiers** | Describe the specific results associated with the topic variable (Findings only) | --ORRES, --STRESC, --STRESN |\n| **Synonym Qualifiers** | Specify an alternative name for a particular variable | --MODIFY, --DECOD (for --TRT/--TERM); --TEST, --LOINC (for --TESTCD) |\n| **Record Qualifiers** | Define additional attributes of the observation record as a whole (rather than describing a particular variable within a record) | --REASND, AESLIFE and other SAE flags (AE domain); AGE, SEX, RACE (DM domain); --BLFL, --POS, --LOC, --SPEC, --NAM (Findings) |\n| **Variable Qualifiers** | Modify or describe a specific variable within an observation; are only meaningful in the context of the variable they qualify | --ORRESU, --ORNRHI, --ORNRLO (Variable Qualifiers of --ORRES); --DOSU (Variable Qualifier of --DOSE) |\n\n**Example:** In the observation \"Subject 101 had mild nausea starting on study day 6\":\n- Topic variable value = \"NAUSEA\"\n- Identifier variable: subject identifier \"101\"\n- Timing variable: \"starting on study day 6\"\n- Record Qualifier: severity = \"MILD\"\n\n## 2.2 Datasets and Domains\n\nA **domain** is a collection of logically related observations with a common topic. Each domain is represented by a single dataset.\n\nEach domain dataset is distinguished by a unique, 2-character code (DOMAIN) used in 4 ways:\n1. As the dataset name\n2. As the value of the DOMAIN variable in that dataset\n3. As a prefix for most variable names in that dataset\n4. As a value in the RDOMAIN variable in relationship tables\n\nAll datasets are structured as flat files with rows representing observations and columns representing variables. Metadata are described in a Define-XML document that is submitted with the data.\n\nThe SDTM lists only the name, label, and type of each variable, with a brief set of CDISC guidelines for its use. The domain dataset models in Section 5, Models for Special-purpose Domains, a\n...(truncated)\n\n---\n\n### [8] chapters/ch04_general_assumptions.md -- 4.4.2 Date/Time Precision  (similarity: 0.621)\n\n### 4.4.2 Date/Time Precision\n\nThe concept of representing date/time precision is handled through use of the ISO 8601 standard. According to ISO 8601, precision (also referred to as \"completeness\" or \"representations with reduced accuracy\") can be inferred from the presence or absence of components in the date and/or time values. Missing components are represented by right truncation or a hyphen (for intermediate components that are missing). If the date and time values are completely missing, the SDTM date time field should be null. Every component except year is represented as 2 digits. Years are represented as 4 digits; for all other components, 1-digit numbers are always padded with a leading zero.\n\nThe following table provides examples of ISO 8601 representations of complete and truncated date/time values. Note that if no time component is represented, the [T] time designator (in addition to the missing time) must be omitted in ISO 8601 representation.\n\n| # | Date and Time as Originally Recorded | Precision | ISO 8601 Date/Time |\n|---|--------------------------------------|-----------|-------------------|\n| 1 | December 15, 2003 13:14:17.123 | Date/time, including fractional seconds | 2003-12-15T13:14:17.123 |\n| 2 | December 15, 2003 13:14:17 | Date/time to the nearest second | 2003-12-15T13:14:17 |\n| 3 | December 15, 2003 13:14 | Unknown seconds | 2003-12-15T13:14 |\n| 4 | December 15, 2003 13 | Unknown minutes and seconds | 2003-12-15T13 |\n| 5 | December 15, 2003 | Unknown time | 2003-12-15 |\n| 6 | December, 2003 | Unknown day and time | 2003-12 |\n| 7 | 2003 | Unknown month, day, and time | 2003 |\n\nThis date and date/time model also provides for imprecise or estimated dates, such as those commonly seen in Medical History. To represent these intervals while applying the ISO 8601 standard, it is recommended that the sponsor concatenate the date/time values (using the most complete representation of the date/time known) that describe the beginning and the end of the interval of uncertainty and separate them with a solidus, as shown in the following table.\n\n| # | Interval of Uncertainty | ISO 8601 Date/Time |\n|---|------------------------|-------------------|\n| 1 | Between 10:00 and 10:30 on the morning of December 15, 2003 | 2003-12-15T10:00/2003-12-15T10:30 |\n| 2 | Between the first of this year (2003) until \"now\" (February 15, 2003) | 2003-01-01/2003-02-15 |\n| 3 | Between the first and the tenth of December, 2003 | 2003-12-01/2003-12-10 |\n| 4 | Sometime in the first half of 2003 | 2003-01-01/2003-06-30 |\n\nOther uncertainty intervals may be represented by the omission of components of the date when these components are unknown or missing. As previously mentioned, ISO 8601 represents missing intermediate components through the use of a hyphen where the missing component would normally be represented. This may be used in addition to \"appropriate right truncations\" for incomplete date/time representations. When components are omitted, the expected delimiters must still be kept in place and only a single hyphen is to be used to indicate an omitted component. Examples of this method of omitted component representation are shown in the following table.\n\n| # | Date and Time as Originally Recorded | Level of Uncertainty | ISO 8601 Date/Time |\n|---|--------------------------------------|---------------------|-------------------|\n| 1 | December 15, 2003 13:15:17 | Date/time to the nearest second | 2003-12-15T13:15:17 |\n| 2 | December 15, 2003 ??:15 | Unknown hour with known minutes | 2003-12-15T--:15 |\n| 3 | December 15, 2003 13:??:17 | Unknown minutes with known date, hours, and seconds | 2003-12-15T13:--:17 |\n| 4 | The 15th of some month in 2003, time not collected | Unknown month and time with known year and day | 2003---15 |\n| 5 | December 15, but can't remember the year, time not collected | Unknown year with known month and day | --12-15 |\n| 6 | 7:15 of some unknown date | Unknown date with known hour and minute | -----T07:15 \n...(truncated)\n\n---\n\n### [9] model/01_concepts_and_terms.md -- 2.2 Table Structure  (similarity: 0.614)\n\n## 2.2 Table Structure\n\nTables in the SDTM v2.0 document include the following variable metadata:\n\n| Column | Description |\n|--------|-------------|\n| **Variable Name** | The standard name (with `--` prefix for domain-prefixed variables) |\n| **Variable Label** | Human-readable label for the variable |\n| **Type** | SAS data type: `Char` or `Num` |\n| **Format** | ISO format standard or description (e.g., \"number-number\") |\n| **Role** | As defined in Section 2.1 (Identifier, Topic, Timing, etc.) |\n| **Variable(s) Qualified** | For variables with a role of Variable Qualifier or Synonym Qualifier |\n| **Usage Restrictions** | Rules for when a variable can or cannot be used |\n| **Variable C-code** | NCI-EVS concept code |\n| **Definition** | Published as part of CDISC Controlled Terminology through NCI-EVS |\n| **Notes** | Descriptive information not covered elsewhere |\n| **Examples** | Sample values or descriptions of kinds of information |\n\n**Note:** Information on usage restrictions and examples that were in the Description column in SDTM v1.x tables have been moved to the Usage Restrictions and Examples columns. Other content previously in the Description column has been moved to the Notes column, except that definition-like information has been removed for variables which have approved definitions.\n\n\n---\n\n### [10] domains/DM/spec.md -- DMDTC  (similarity: 0.604)\n\n### DMDTC\n- **Order:** 31\n- **Label:** Date/Time of Collection\n- **Type:** Char\n- **Controlled Terms:** ISO 8601 datetime or interval\n- **Role:** Timing\n- **Core:** Perm\n- **CDISC Notes:** Date/time of demographic data collection.\n\n\n\n---\n\n### [11] terminology/questionnaires/questionnaires_part40.md -- Treatment Satisfaction Questionnaire for Medication Version 1.4 Questionnaire Test Code  (similarity: 8.083)\n\n## Treatment Satisfaction Questionnaire for Medication Version 1.4 Questionnaire Test Code (C132525)\n\nExtensible: No\n\n| Code | CDISC Submission Value | CDISC Synonym(s) | CDISC Definition |\n|------|----------------------|-------------------|------------------|\n| C132618 | TSQM0101 | TSQM01-Med to Prevent/Treat Condition | Treatment Satisfaction Questionnaire for Medication - How satisfied or dissatisfied are you with the ability of the medication to prevent or treat your condition? |\n| C132619 | TSQM0102 | TSQM01-Way Medication Relieves Symptoms | Treatment Satisfaction Questionnaire for Medication - How satisfied or dissatisfied are you with the way the medication relieves your symptoms? |\n| C132620 | TSQM0103 | TSQM01-Time Takes Med to Start Working | Treatment Satisfaction Questionnaire for Medication - How satisfied or dissatisfied are you with the amount of time it takes the medication to start working? |\n| C132621 | TSQM0104 | TSQM01-Experience Any Side Effect at All | Treatment Satisfaction Questionnaire for Medication - As a result of taking this medication, do you experience any side effects at all? |\n| C132622 | TSQM0105 | TSQM01-How Bothersome Are Side Effects | Treatment Satisfaction Questionnaire for Medication - How bothersome are the side effects of the medication you take to treat your condition? |\n| C132623 | TSQM0106 | TSQM01-Interfere With Physical Health | Treatment Satisfaction Questionnaire for Medication - To what extent do the side effects interfere with your physical health and ability to function (i.e., strength, energy levels, etc.)? |\n| C132624 | TSQM0107 | TSQM01-Interfere With Mental Function | Treatment Satisfaction Questionnaire for Medication - To what extent do the side effects interfere with your mental function (i.e., ability to think clearly, stay awake, etc.)? |\n| C132625 | TSQM0108 | TSQM01-Side Effect Affect Overall Satisf | Treatment Satisfaction Questionnaire for Medication - To what degree have medication side effects affected your overall satisfaction with the medication? |\n| C132626 | TSQM0109 | TSQM01-Easy/Difficult Use Medication | Treatment Satisfaction Questionnaire for Medication - How easy or difficult is it to use the medication in its current form? |\n| C132627 | TSQM0110 | TSQM01-Easy/Difficult to Plan Use of Med | Treatment Satisfaction Questionnaire for Medication - How easy or difficult is it to plan when you will use the medication each time? |\n| C132628 | TSQM0111 | TSQM01-Convenient/Inconvenient Take Med | Treatment Satisfaction Questionnaire for Medication - How convenient or inconvenient is it to take the medication as instructed? |\n| C132629 | TSQM0112 | TSQM01-Confident Med Is Good for You | Treatment Satisfaction Questionnaire for Medication - Overall, how confident are you that taking this medication is a good thing for you? |\n| C132630 | TSQM0113 | TSQM01-Certain Good Things Outweigh Bad | Treatment Satisfaction Questionnaire for Medication - How certain are you that the good things about your medication outweigh the bad things? |\n| C132631 | TSQM0114 | TSQM01-Satisfied/Dissatisfied With Med | Treatment Satisfaction Questionnaire for Medication - Taking all things into account, how satisfied or dissatisfied are you with this medication? |\n\n\n\n---\n\n### [12] domains/SS/spec.md -- SSDTC  (similarity: 0.602)\n\n### SSDTC\n- **Order:** 21\n- **Label:** Date/Time of Assessment\n- **Type:** Char\n- **Controlled Terms:** ISO 8601 datetime or interval\n- **Role:** Timing\n- **Core:** Exp\n- **CDISC Notes:** Date and time of the subject status assessment represented in ISO 8601 character format.\n\n\n\n---\n\n### [13] terminology/questionnaires/questionnaires_part40.md -- Treatment Satisfaction Questionnaire for Medication Version 1.4 Questionnaire Test Name  (similarity: 8.068)\n\n## Treatment Satisfaction Questionnaire for Medication Version 1.4 Questionnaire Test Name (C132524)\n\nExtensible: No\n\n| Code | CDISC Submission Value | CDISC Synonym(s) | CDISC Definition |\n|------|----------------------|-------------------|------------------|\n| C132630 | TSQM01-Certain Good Things Outweigh Bad | TSQM01-Certain Good Things Outweigh Bad | Treatment Satisfaction Questionnaire for Medication - How certain are you that the good things about your medication outweigh the bad things? |\n| C132629 | TSQM01-Confident Med Is Good for You | TSQM01-Confident Med Is Good for You | Treatment Satisfaction Questionnaire for Medication - Overall, how confident are you that taking this medication is a good thing for you? |\n| C132628 | TSQM01-Convenient/Inconvenient Take Med | TSQM01-Convenient/Inconvenient Take Med | Treatment Satisfaction Questionnaire for Medication - How convenient or inconvenient is it to take the medication as instructed? |\n| C132627 | TSQM01-Easy/Difficult to Plan Use of Med | TSQM01-Easy/Difficult to Plan Use of Med | Treatment Satisfaction Questionnaire for Medication - How easy or difficult is it to plan when you will use the medication each time? |\n| C132626 | TSQM01-Easy/Difficult Use Medication | TSQM01-Easy/Difficult Use Medication | Treatment Satisfaction Questionnaire for Medication - How easy or difficult is it to use the medication in its current form? |\n| C132621 | TSQM01-Experience Any Side Effect at All | TSQM01-Experience Any Side Effect at All | Treatment Satisfaction Questionnaire for Medication - As a result of taking this medication, do you experience any side effects at all? |\n| C132622 | TSQM01-How Bothersome Are Side Effects | TSQM01-How Bothersome Are Side Effects | Treatment Satisfaction Questionnaire for Medication - How bothersome are the side effects of the medication you take to treat your condition? |\n| C132624 | TSQM01-Interfere With Mental Function | TSQM01-Interfere With Mental Function | Treatment Satisfaction Questionnaire for Medication - To what extent do the side effects interfere with your mental function (i.e., ability to think clearly, stay awake, etc.)? |\n| C132623 | TSQM01-Interfere With Physical Health | TSQM01-Interfere With Physical Health | Treatment Satisfaction Questionnaire for Medication - To what extent do the side effects interfere with your physical health and ability to function (i.e., strength, energy levels, etc.)? |\n| C132618 | TSQM01-Med to Prevent/Treat Condition | TSQM01-Med to Prevent/Treat Condition | Treatment Satisfaction Questionnaire for Medication - How satisfied or dissatisfied are you with the ability of the medication to prevent or treat your condition? |\n| C132631 | TSQM01-Satisfied/Dissatisfied With Med | TSQM01-Satisfied/Dissatisfied With Med | Treatment Satisfaction Questionnaire for Medication - Taking all things into account, how satisfied or dissatisfied are you with this medication? |\n| C132625 | TSQM01-Side Effect Affect Overall Satisf | TSQM01-Side Effect Affect Overall Satisf | Treatment Satisfaction Questionnaire for Medication - To what degree have medication side effects affected your overall satisfaction with the medication? |\n| C132620 | TSQM01-Time Takes Med to Start Working | TSQM01-Time Takes Med to Start Working | Treatment Satisfaction Questionnaire for Medication - How satisfied or dissatisfied are you with the amount of time it takes the medication to start working? |\n| C132619 | TSQM01-Way Medication Relieves Symptoms | TSQM01-Way Medication Relieves Symptoms | Treatment Satisfaction Questionnaire for Medication - How satisfied or dissatisfied are you with the way the medication relieves your symptoms? |\n\n\n\n---\n\n### [14] terminology/supplementary/supplementary_part5.md -- SDTM Version Response  (similarity: 0.601)\n\n## SDTM Version Response (C160923)\n\nExtensible: Yes\n\n| Code | CDISC Submission Value | CDISC Synonym(s) | CDISC Definition |\n|------|----------------------|-------------------|------------------|\n| C161425 | 1.1 | SDTM Version 1.1 | Version 1.1 of the CDISC Study Data Tabulation Model (SDTM). |\n| C161426 | 1.2 | SDTM Version 1.2 | Version 1.2 of the CDISC Study Data Tabulation Model (SDTM). |\n| C161427 | 1.3 | SDTM Version 1.3 | Version 1.3 of the CDISC Study Data Tabulation Model (SDTM). |\n| C161428 | 1.4 | SDTM Version 1.4 | Version 1.4 of the CDISC Study Data Tabulation Model (SDTM). |\n| C161429 | 1.5 | SDTM Version 1.5 | Version 1.5 of the CDISC Study Data Tabulation Model (SDTM). |\n| C161430 | 1.6 | SDTM Version 1.6 | Version 1.6 of the CDISC Study Data Tabulation Model (SDTM). |\n| C161431 | 1.7 | SDTM Version 1.7 | Version 1.7 of the CDISC Study Data Tabulation Model (SDTM). |\n| C189639 | 2.0 | SDTM Version 2.0 | Version 2.0 of the CDISC Study Data Tabulation Model (SDTM). |\n\n\n\n---\n\n### [15] terminology/questionnaires/questionnaires_part1.md -- Alcohol Use Disorder Identification Test: Self-Report Version Questionnaire Test Name  (similarity: 7.923)\n\n## Alcohol Use Disorder Identification Test: Self-Report Version Questionnaire Test Name (C119059)\n\nExtensible: No\n\n| Code | CDISC Submission Value | CDISC Synonym(s) | CDISC Definition |\n|------|----------------------|-------------------|------------------|\n| C119109 | ADT01-Alcohol Drinks on a Typical Day | ADT01-Alcohol Drinks on a Typical Day | Alcohol Use Disorder Identification Test: Self-Report Version - How many drinks containing alcohol do you have on a typical day when you are drinking? |\n| C119112 | ADT01-Failed to Do as Expected | ADT01-Failed to Do as Expected | Alcohol Use Disorder Identification Test: Self-Report Version - How often during the last year have you failed to do what was normally expected of you because of drinking? |\n| C119114 | ADT01-Feeling of Guilt or Remorse | ADT01-Feeling of Guilt or Remorse | Alcohol Use Disorder Identification Test: Self-Report Version - How often during the last year have you had a feeling of guilt or remorse after drinking? |\n| C119108 | ADT01-How Often Drink Alcohol | ADT01-How Often Drink Alcohol | Alcohol Use Disorder Identification Test: Self-Report Version - How often do you have a drink containing alcohol? |\n| C119116 | ADT01-Injured Because of Your Drinking | ADT01-Injured Because of Your Drinking | Alcohol Use Disorder Identification Test: Self-Report Version - Have you or someone else been injured because of your drinking? |\n| C119113 | ADT01-Need Drink Morning After Drinking | ADT01-Need Drink Morning After Drinking | Alcohol Use Disorder Identification Test: Self-Report Version - How often during the last year have you needed a first drink in the morning to get yourself going after a heavy drinking session? |\n| C119111 | ADT01-Not Able Stop Drinking Once Start | ADT01-Not Able Stop Drinking Once Start | Alcohol Use Disorder Identification Test: Self-Report Version - How often during the last year have you found that you were not able to stop drinking once you had started? |\n| C119110 | ADT01-Six or More Drinks One Occasion | ADT01-Six or More Drinks One Occasion | Alcohol Use Disorder Identification Test: Self-Report Version - How often do you have six or more drinks on one occasion? |\n| C119117 | ADT01-Suggested to Cut Down | ADT01-Suggested to Cut Down | Alcohol Use Disorder Identification Test: Self-Report Version - Has a relative, friend, doctor, or other health care worker been concerned about your drinking or suggested you cut down? |\n| C119118 | ADT01-Total | ADT01-Total | Alcohol Use Disorder Identification Test: Self-Report Version - Total. |\n| C119115 | ADT01-Unable to Remember What Happened | ADT01-Unable to Remember What Happened | Alcohol Use Disorder Identification Test: Self-Report Version - How often during the last year have you been unable to remember what happened the night before because of your drinking? |\n\n",
    "off_answer": "Date and time variables in SDTM use the suffix **`DTC`** (Date/Time Character). This suffix is appended to a domain prefix (e.g., `AESTDTC`, `VSDTC`, `DMDTC`) to form the variable name. **[Source: chapters/ch04_general_assumptions.md §4.4.1]**\n\n---\n\n### ISO 8601 Extended Format\n\nAll date/time values in SDTM are stored as **character strings** conforming to the **ISO 8601 extended format**:\n\n`YYYY-MM-DDThh:mm:ss(.n+)?(((+|-)hh:mm)|Z)?`\n\n- `YYYY` – four-digit year  \n- `MM` – two-digit month (01–12)  \n- `DD` – two-digit day (01–31)  \n- `T` – time designator (if time is present)  \n- `hh` – two-dig",
    "on_v2_answer": "Date and time variables in SDTM use the suffix **`DTC`** (Date/Time Character). The full variable name is typically formed as `<domain prefix>DTC`, for example `AESTDTC`, `VSDTC`, `DMDTC`.  \n\nThese variables store date/time information as **character strings in ISO 8601 extended format**, as required by the SDTMIG. The format pattern is:\n\n`YYYY-MM-DDThh:mm:ss(.n+)?(((+|-)hh:mm)|Z)?`\n\nKey rules include:\n- Components are separated by hyphens (`-`) for dates and colons (`:`) for times; the `T` separates date and time.\n- Right‑truncation indicates missing components (e.g., `2003-12` for unknown day and time).\n- Missing intermediate components are represented by a single hyphen for each missing part (e.g., `2003---15` for an unknown month).\n- Time‑zone offset (`±hh:mm`) or `Z` for UTC is optional.\n- Fractional seconds are optional after a decimal point.\n- Spaces are **not allowed** in any ISO 8601 representation.\n- Imprecise dates can be expressed as an interval using a solidus `/` (e.g., `2003-12-01/2003-12-10`).\n\n**[Source: chapters/ch04_general_assumptions.md – 4.4.1 and 4.4.2]**  \n**[Source: domains/VS/spec.md – VSDTC definition]**  \n**[Source: domains/DM/spec.md – DMDTC definition]**  \n**[Source: domains/SS/spec.md – SSDTC definition]**"
  },
  {
    "id": "s02",
    "category": "concept",
    "question": "What is the SUPPQUAL variable QNAM and what character constraints apply to it? What is the maximum length and what characters are allowed?",
    "expected_facts": [
      "QNAM",
      "8 characters",
      "letters, numbers, or underscores",
      "cannot start with a number",
      "Qualifier Variable Name"
    ],
    "on_v2_fact_misses": [
      "letters, numbers, or underscores"
    ],
    "retrieved_context": "### [1] domains/SUPPQUAL/spec.md -- QNAM  (similarity: 0.673)\n\n### QNAM\n- **Order:** 6\n- **Label:** Qualifier Variable Name\n- **Type:** Char\n- **Controlled Terms:** \n- **Role:** Topic\n- **Core:** Req\n- **CDISC Notes:** The short name of the qualifier variable, which is used as a column name in a domain view with data from the parent domain. The value in QNAM cannot be longer than 8 characters, nor can it start with a number (e.g., \"1TEST\" is not valid). QNAM cannot contain characters other than letters, numbers, or underscores. This will often be the column name in the sponsor's operational dataset.\n\n\n\n---\n\n### [2] domains/SUPPQUAL/spec.md -- QVAL  (similarity: 0.627)\n\n### QVAL\n- **Order:** 8\n- **Label:** Data Value\n- **Type:** Char\n- **Controlled Terms:** \n- **Role:** Result Qualifier\n- **Core:** Req\n- **CDISC Notes:** Result of, response to, or value associated with QNAM. A value for this column is required; no records can be in SUPP-- with a null value for QVAL.\n\n\n\n---\n\n### [3] domains/SUPPQUAL/spec.md -- QLABEL  (similarity: 0.576)\n\n### QLABEL\n- **Order:** 7\n- **Label:** Qualifier Variable Label\n- **Type:** Char\n- **Controlled Terms:** \n- **Role:** Synonym Qualifier\n- **Core:** Req\n- **CDISC Notes:** This is the long name or label associated with QNAM. The value in QLABEL cannot be longer than 40 characters. This will often be the column label in the sponsor's original dataset.\n\n\n\n---\n\n### [4] domains/SUPPQUAL/spec.md -- QEVAL  (similarity: 0.479)\n\n### QEVAL\n- **Order:** 10\n- **Label:** Evaluator\n- **Type:** Char\n- **Controlled Terms:** C78735\n- **Role:** Record Qualifier\n- **Core:** Exp\n- **CDISC Notes:** Used only for results that are subjective (e.g., assigned by a person or a group). Should be null for records that contain objectively collected or derived data. Examples: \"ADJUDICATION COMMITTEE\", \"STATISTICIAN\", \"DATABASE ADMINISTRATOR\", \"CLINICAL COORDINATOR\".\n---\n\n## Cross References\n\n\n\n---\n\n### [5] chapters/ch04_general_assumptions.md -- 4.5.3 Text Strings that Exceed the Maximum Length for General Observation-class Domain Variables  (similarity: 0.544)\n\n### 4.5.3 Text Strings that Exceed the Maximum Length for General Observation-class Domain Variables\n\n#### 4.5.3.1 Test Name (--TEST) Greater than 40 Characters\n\nSponsors may have test descriptions (--TEST) longer than 40 characters in their operational database. Because the --TEST variable is meant to serve as a label for a --TESTCD when a Findings dataset is transposed to a more horizontal format, the length of --TEST is limited to 40 characters (except as noted below) to conform to the limitations of the SAS V5 transport file format. Therefore, sponsors have the choice to either insert the first 40 characters or a text string abbreviated to 40 characters in --TEST. Sponsors have the following options for including the full description for these variables in the study metadata:\n\n- If the annotated CRF contains the full text, provide a reference to the aCRF page containing the full test description in the Define-XML document origin definition for --TEST.\n- If the annotated CRF does not specify the full text, then the full text should be documented in the Define-XML document and/or other submission materials (e.g., the clinical study data reviewer's guide).\n\nThis convention should also be applied to the qualifier value label (QLABEL) in Supplemental Qualifiers (SUPP--) datasets.\n\n**Exception — IETEST in IE and TI domains:** IETEST values in the Inclusion/Exclusion Criteria Not Met (IE) and Trial Inclusion/Exclusion Criteria (TI) domains are exceptions to the 40-character rule and are limited to 200 characters, because these are not expected to be transformed to column labels. Values of IETEST that exceed 200 characters should be described in study metadata as per the convention above.\n\n#### 4.5.3.2 Text Strings Greater than 200 Characters in Other Variables\n\nSome sponsors may collect data values longer than 200 characters for some variables. Because of the current requirement for the SAS V5 transport file format, it is not possible to store long text strings using only 1 variable. Therefore, the SDTMIG has defined conventions for storing long text strings using multiple variables.\n\nFor general observation-class variables and supplemental qualifiers (i.e., non-standard variables, NSVs), the conventions are as follows:\n\n- The **first 200 characters** of text should be stored in the parent domain variable and each additional 200 characters of text should be stored in a record in the SUPP-- dataset (see Section 8.4, Relating Non-standard Variable Values to a Parent Domain)\n- When splitting a text string into several records, the text should be **split between words** to improve readability\n- When the text longer than 200 characters is for a supplemental qualifier, the **first QNAM should describe the NSV without any numeric suffix**\n- The value for QNAMs for additional text (>200 characters) should contain a **sequential variable name formed by appending a 1-digit integer, beginning with 1**, to the original domain variable name\n- The value for **QLABEL should be the original domain variable label**:\n  - The reason a digit integer or suffix is not appended to the label is because the long text string represents a single value for a variable; the physical representation (SAS V5 transport file format) does not change the concept described by the label\n  - This is conceptually different from when there are multiple values for a non-result qualifier variable and values are individually stored in SUPP-- (in that case, both QNAM and QLABEL must be uniquely named per Section 4.2.8.3, Multiple Values for a Non-result Qualifier Variable)\n  - In cases where the standard domain variable name is already 8 characters in length, sponsors should **replace the last character with a digit** when creating values for QNAM; for example, for Other Action Taken in Adverse Events (AEACNOTH), values for QNAM for the SUPPAE records would have the values AEACNOT1, AEACNOT2, and so on\n\n**Example 1 (mh.xpt / suppmh.xpt):** MHTERM was longer than 200 characte\n...(truncated)\n\n---\n\n### [6] chapters/ch04_general_assumptions.md -- 4.2.1 Variable-Naming Conventions  (similarity: 0.510)\n\n### 4.2.1 Variable-Naming Conventions\n\nSDTM variables are named according to a set of conventions, using fragment names (see Appendix D, CDISC Variable-naming Fragments). Variables with names ending in \"CD\" are \"short\" versions of associated variables that do not include the \"CD\" suffix (e.g., --TESTCD is the short version of --TEST).\n\nValues of --TESTCD must be limited to 8 characters and cannot start with a number, nor can they contain characters other than letters, numbers, or underscores. This is to avoid possible incompatibility with SAS v5 transport files. This limitation will be in effect until the use of other formats (e.g., Dataset-XML) becomes acceptable to regulatory authorities.\n\nBecause QNAM serves the same purpose as --TESTCD within supplemental qualifier datasets, values of QNAM are subject to the same restrictions as values of --TESTCD.\n\nValues of other \"CD\" variables are **not** subject to the same restrictions as --TESTCD:\n\n- ETCD (the companion to ELEMENT) and TSPARMCD (the companion to TSPARM) are limited to 8 characters and do not have the character restrictions that apply to --TESTCD. These values should be short for ease of use in programming, but it is not expected that they will need to serve as variable names.\n- ARMCD is limited to 20 characters and does not have the character restrictions that apply to --TESTCD. The maximum length of ARMCD is longer than for other \"short\" variables to accommodate the kind of values that are likely to be needed for crossover trials. For example, if ARMCD values for a 7-period crossover were constructed using 2-character abbreviations for each treatment and separating hyphens, the length of ARMCD values would be 20. This same rule applies to the ACTARMCD variable.\n\nVariable descriptive names (labels), up to 40 characters, should be provided as data variable labels for all variables, including Supplemental Qualifier variables.\n\nUse of variable names (other than domain prefixes), formats, decodes, terminology, and data types for the same type of data (even for custom domains and Supplemental Qualifiers) should be consistent within and across studies within a submission.\n\n#### 4.2.1.1 --TEST and --TESTCD Conventions (Findings)\n\n- --TESTCD: standardized or dictionary-derived short sequence, up to 8 characters\n- --TEST: full descriptive name of the test\n- Both are subject to controlled terminology where available\n\n#### 4.2.1.2 --TRT Conventions (Interventions)\n\n- Contains the verbatim name of the treatment, drug, procedure, or therapy\n- Should represent the name as reported on the CRF\n\n#### 4.2.1.3 --TERM Conventions (Events)\n\n- Contains the verbatim or prespecified name of the event\n- Should represent the term as reported on the CRF\n\n\n\n---\n\n### [7] chapters/ch08_relationships.md -- Key Rules  (similarity: 0.673)\n\n### Key Rules\n\n- A record in a SUPP-- dataset relates back to its parent record(s) via the key identified by the STUDYID, RDOMAIN, USUBJID, and IDVAR/IDVARVAL variables. An exception is SUPP-- dataset records that are related to Demographics (DM) records, where both IDVAR and IDVARVAL will be null because STUDYID, RDOMAIN, and USUBJID are sufficient to identify the unique parent record in DM (DM has 1 record per USUBJID)\n- All records in the SUPP-- datasets must have a value for QVAL. Transposing source variables with missing/null values may generate SUPP-- records with null values for QVAL, causing the SUPP-- datasets to be extremely large. When this happens, the sponsor must delete the records where QVAL is null prior to submission\n- See Section 4.5.3, Text Strings that Exceed the Maximum Length for General Observation-class Domain Variables, for information on representing data values greater than 200 characters in length\n- See Appendix C1, Supplemental Qualifiers Name Codes, for controlled terminology for QNAM and QLABEL for some of the most common supplemental qualifiers. Additional QNAM values may be created as needed, following the guidelines provided in the CDISC Notes for QVAL\n\n\n\n---\n\n### [8] chapters/ch04_general_assumptions.md -- 4.5.4 Evaluators in the Interventions and Events Observation Classes  (similarity: 0.562)\n\n### 4.5.4 Evaluators in the Interventions and Events Observation Classes\n\nBecause observations may originate from more than 1 source (e.g., investigator, independent assessor), observations recorded in the Findings class include the --EVAL qualifier. For the Interventions and Events observation classes, which do not include the --EVAL variable, all data are assumed to be attributed to the principal investigator.\n\nThe QEVAL variable can be used to describe the evaluator for any data item in a SUPP-- dataset (see Section 8.4.1, Supplemental Qualifiers -- SUPP-- Datasets), but is not required when the data are objective.\n\nFor observations that have primary and secondary evaluations of specific qualifier variables, sponsors should put data from the primary evaluation into the standard domain dataset and data from the secondary evaluation into the Supplemental Qualifier datasets (SUPP--). Within each SUPP-- record, the value for QNAM should be formed by appending a \"1\" to the corresponding standard domain variable name. In cases where the standard domain variable name is already 8 characters in length, sponsors should replace the last character with a \"1\" (incremented for each additional attribution).\n\n**Example:** An adjudication committee evaluated an adverse event. The evaluations of the adverse event by the primary investigator were represented in the standard AE dataset. The evaluations of the adjudication committee were represented in SUPPAE. See Section 8.4, Relating Non-standard Variable Values to a Parent Domain. Note that the QNAM for the \"Relationship to Non-study Treatment\" supplemental qualifier is AERELNS1, rather than AERELNST1, because AERELNST is already 8 characters in length.\n\nsuppae.xpt:\n\n| Row | STUDYID | RDOMAIN | USUBJID | IDVAR | IDVARVAL | QNAM | QLABEL | QVAL | QORIG | QEVAL |\n|-----|---------|---------|---------|-------|----------|------|--------|------|-------|-------|\n| 1 | 12345 | AE | 99-123 | AESEQ | 3 | AESEV1 | Severity/ Intensity | MILD | CRF | ADJUDICATION COMMITTEE |\n| 2 | 12345 | AE | 99-123 | AESEQ | 3 | AEREL1 | Causality | POSSIBLY RELATED | CRF | ADJUDICATION COMMITTEE |\n| 3 | 12345 | AE | 99-123 | AESEQ | 3 | AERELNS1 | Relationship to Non-study Treatment | Possibly related to aspirin use | CRF | ADJUDICATION COMMITTEE |\n\n\n\n---\n\n### [9] chapters/ch08_relationships.md -- 8.4.2 Submitting Supplemental Qualifiers in Separate Datasets  (similarity: 0.595)\n\n### 8.4.2 Submitting Supplemental Qualifiers in Separate Datasets\n\nThere is a one-to-one correspondence between a domain dataset and its Supplemental Qualifier dataset. The single SUPPQUAL dataset option that was introduced in SDTMIGv3.1 was **deprecated**. The set of supplemental qualifiers for each domain is included in a separate dataset with the name SUPP-- (where \"--\" denotes the source domain which the supplemental qualifiers relate back to). For example, Demographics (DM) qualifiers would be submitted in suppdm.xpt. When data have been split into multiple datasets (see Section 4.1.7, Splitting Domains), longer names such as SUPPFAMH may be needed. In cases where data about associated persons have been collected, supplemental qualifiers for Findings About events or interventions for an associated person may need to be represented (see the SDTMIG for Associated Persons). A dataset name with the SUPP fragment (e.g., SUPPAPFAMH) would be too long. In this case only, the \"SUPP\" portion should be shortened to \"SQ\" (e.g., resulting in the dataset name SQAPFAMH).\n\nSee Section 4.5.3, Text Strings that Exceed the Maximum Length for General Observation-class Domain Variables, for information on representing data values greater than 200 characters in length.\n\n\n\n---\n\n### [10] chapters/ch08_relationships.md -- 8.4.1 Supplemental Qualifiers (SUPP--)  (similarity: 0.656)\n\n### 8.4.1 Supplemental Qualifiers (SUPP--)\n\nsupp--.xpt, Supplemental Qualifiers for [domain name] — Relationship. One record per supplemental qualifier per related parent domain record(s), Tabulation.\n\n| Variable Name | Variable Label | Type | Controlled Terms, Codelist or Format | Role | CDISC Notes | Core |\n|--------------|----------------|------|--------------------------------------|------|-------------|------|\n| STUDYID | Study Identifier | Char | | Identifier | Study identifier of the parent record(s). | Req |\n| RDOMAIN | Related Domain Abbreviation | Char | (DOMAIN) | Identifier | Two-character abbreviation for the domain of the parent record(s). | Req |\n| USUBJID | Unique Subject Identifier | Char | | Identifier | Identifier used to uniquely identify a subject across all studies for all applications or submissions involving the product. This is the value of USUBJID in the parent record(s). | Req |\n| IDVAR | Identifying Variable | Char | * | Identifier | Identifying variable in the dataset that identifies the related record(s). Examples: --SEQ, --GRPID. | Exp |\n| IDVARVAL | Identifying Variable Value | Char | | Identifier | Value of identifying variable of the parent record(s). | Exp |\n| QNAM | Qualifier Variable Name | Char | * | Topic | The short name of the qualifier variable, which is used as a column name in a domain view with data from the parent domain. The value in QNAM cannot be longer than 8 characters, nor can it start with a number (e.g., \"1TEST\" is not valid). QNAM cannot contain characters other than letters, numbers, or underscores. This will often be the column name in the sponsor's operational dataset. | Req |\n| QLABEL | Qualifier Variable Label | Char | | Synonym Qualifier | This is the long name or label associated with QNAM. The value in QLABEL cannot be longer than 40 characters. This will often be the column label in the sponsor's original dataset. | Req |\n| QVAL | Data Value | Char | | Result Qualifier | Result of, response to, or value associated with QNAM. A value for this column is required; no records can be in SUPP-- with a null value for QVAL. | Req |\n| QORIG | Origin | Char | | Record Qualifier | Because QVAL can represent a mixture of collected (on a CRF), derived, or assigned items, QORIG is used to indicate the origin of this data. Examples: \"CRF\", \"Assigned\", \"Derived\". See Section 4.1.8, Origin Metadata. | Req |\n| QEVAL | Evaluator | Char | (EVAL) | Record Qualifier | Used only for results that are subjective (e.g., assigned by a person or a group). Should be null for records that contain objectively collected or derived data. Examples: \"ADJUDICATION COMMITTEE\", \"STATISTICIAN\", \"DATABASE ADMINISTRATOR\", \"CLINICAL COORDINATOR\". | Exp |\n\n^1^ In this column, an asterisk (*) indicates that the variable may be subject to controlled terminology. CDISC/NCI codelist values are enclosed in parentheses.\n\n\n\n---\n\n### [11] chapters/ch04_general_assumptions.md -- 4.2.9 Variable Lengths  (similarity: 13.811)\n\n### 4.2.9 Variable Lengths\n\nWhen variable length is referenced in the SDTMIG, this refers to the length in bytes of ASCII character strings.\n\nVery large transport files have become an issue for certain regulatory authorities (e.g., US FDA) to process. One of the main contributors to large file sizes has been sponsors using the maximum length of 200 for character variables. To help rectify this situation:\n\n- The maximum SAS v5 transport file character variable length of 200 characters should not be used unless necessary.\n- Sponsors should consider the nature of the data and apply reasonable, appropriate lengths to variables. For example:\n  - The length of flags will always be 1.\n  - --TESTCD and IDVAR will never be more than 8, so the length can always be set to 8.\n  - The length for variables that use controlled terminology can be set to the length of the longest term.\n\n---\n\n## 4.3 Coding and Controlled Terminology Assumptions\n\n> **Note:** Examples provided in the CDISC Notes column and domain examples are only examples and not intended to imply controlled terminology. For current CDISC Controlled Terminology, visit https://datascience.cancer.gov/resources/cancer-vocabulary/cdisc-terminology.\n\n\n\n---\n\n### [12] VARIABLE_INDEX.md -- SUPPQUAL — Supplemental Qualifiers for [domain name] (Relationship)  (similarity: 0.653)\n\n### SUPPQUAL — Supplemental Qualifiers for [domain name] (Relationship)\n\n| 变量名 | Label | Type | Role | Core | CT |\n|--------|-------|------|------|------|----|\n| QNAM | Qualifier Variable Name | Char | Topic | Req | — |\n| QLABEL | Qualifier Variable Label | Char | Synonym Qualifier | Req | — |\n| QVAL | Data Value | Char | Result Qualifier | Req | — |\n| QORIG | Origin | Char | Record Qualifier | Req | — |\n| QEVAL | Evaluator | Char | Record Qualifier | Exp | C78735 |\n\n\n\n---\n\n### [13] domains/DM/examples.md -- Example 7  (similarity: 12.664)\n\n## Example 7\n\n**CRF Mock Example**\n\n```mermaid\ngraph TD\n    Q[\"Which of the following five racial designations<br/>best describes you?<br/>(More than one choice is acceptable)<br/>RACE\"]\n    R1[\"☐ American Indian or Alaska Native\"]\n    R2[\"☐ Asian\"]\n    R3[\"☐ Black or African American\"]\n    R4[\"☐ Native Hawaiian or Other Pacific Islander\"]\n    R5[\"☐ White\"]\n    R6[\"☐ Unknown\"]\n    R7[\"☐ Other\"]\n\n    Q --> R1\n    Q --> R2\n    Q --> R3\n    Q --> R4\n    Q --> R5\n    Q --> R6\n    Q --> R7\n\n    OTH[\"What was the other race?<br/>RACEOTH → SUPPDM.QVAL<br/>(QNAM = RACEOTH)\"]\n    UNK[\"If Unknown, please specify:<br/>RACEREAS → SUPPDM.QVAL<br/>(QNAM = RACEREAS)\"]\n\n    R7 -.->|\"If selected\"| OTH\n    R6 -.->|\"If selected\"| UNK\n\n    style Q fill:#f5f5f5,stroke:#333,stroke-width:2px\n    style OTH fill:#eef5ff,stroke:#4a86c8\n    style UNK fill:#eef5ff,stroke:#4a86c8\n```\n\nThe CRF presents 5 racial designations plus \"Unknown\" and \"Other\" options:\n- American Indian or Alaska Native\n- Asian\n- Black or African American\n- Native Hawaiian or Other Pacific Islander\n- White\n- Unknown\n- Other\n\nAdditional fields: \"What was the other race?\" (RACEOTH → SUPPDM.QVAL where SUPPDM.QNAM = \"RACEOTH\") and \"If Unknown, please specify:\" (RACEREAS → SUPPDM.QVAL where SUPPDM.QNAM = \"RACEREAS\").\n\n**Rows 1-2:** Subjects self-identify to 1 of the first 5 race options on the CRF form.\n\n**Row 3:** Subject did not self-identify to 1 of the existing race options and selected \"Other\". RACE was populated with \"OTHER\" in this case.\n\n**Row 4:** Subject could not self-identify to any of the race options including identification of an \"Other\". RACE was populated with \"UNKNOWN\" in this case.\n\n**Note:** Not all DM variables are shown.\n\n**dm.xpt**\n\n| Row | STUDYID | DOMAIN | USUBJID | SUBJID | AGE | AGEU | SEX | RACE | ETHNIC |\n|-----|---------|--------|---------|--------|-----|------|-----|------|--------|\n| 1 | ABC789 | DM | ABC789-010-045 | 010-045 | 20 | YEARS | M | WHITE | HISPANIC OR LATINO |\n| 2 | ABC789 | DM | ABC789-010-046 | 010-046 | 21 | YEARS | F | ASIAN | NOT HISPANIC OR LATINO |\n| 3 | ABC789 | DM | ABC789-010-047 | 010-047 | 24 | YEARS | F | OTHER | HISPANIC OR LATINO |\n| 4 | ABC789 | DM | ABC789-010-048 | 010-048 | 33 | YEARS | M | UNKNOWN | HISPANIC OR LATINO |\n\n**Row 1:** Sponsor allowed for an \"Other\" option to be collected, where its specify details are in SUPPDM.\n\n**Row 2:** Sponsor allowed for an \"Unknown\" option to be collected, where its reason is collected in SUPPDM.\n\n**Note:** Recommended QNAM-QLABEL values have been provided.\n\n**suppdm.xpt**\n\n| Row | STUDYID | RDOMAIN | USUBJID | IDVAR | IDVARVAL | QNAM | QLABEL | QVAL | QORIG | QEVAL |\n|-----|---------|---------|---------|-------|----------|------|--------|------|-------|-------|\n| 1 | ABC789 | DM | ABC789-010-047 | | | RACEOTH | Race, Other | BRAZILIAN | CRF | |\n| 2 | ABC789 | DM | ABC789-010-048 | | | RACEREAS | Race, Reason Details | REFUGEE - DO NOT KNOW MY RACE | CRF | |\n\n\n---\n\n### [14] terminology/supplementary/supplementary_part4.md -- Mini-Mental State Examination 2 Standard Version Functional Test Test Name  (similarity: 11.835)\n\n## Mini-Mental State Examination 2 Standard Version Functional Test Test Name (C150769)\n\nExtensible: No\n\n| Code | CDISC Submission Value | CDISC Synonym(s) | CDISC Definition |\n|------|----------------------|-------------------|------------------|\n| C151024 | MMS2-BV Total Raw Score | MMS2-BV Total Raw Score | Mini-Mental State Examination 2 Standard Version - BV (Brief Version) total raw score. |\n| C151023 | MMS2-Copy This Design | MMS2-Copy This Design | Mini-Mental State Examination 2 Standard Version - Please copy this design. |\n| C151021 | MMS2-Do What This Says to Do | MMS2-Do What This Says to Do | Mini-Mental State Examination 2 Standard Version - Please do what this says to do. |\n| C151011 | MMS2-Keep Subtracting 7 Step 2 | MMS2-Keep Subtracting 7 Step 2 | Mini-Mental State Examination 2 Standard Version - Keep going [86]. |\n| C151012 | MMS2-Keep Subtracting 7 Step 3 | MMS2-Keep Subtracting 7 Step 3 | Mini-Mental State Examination 2 Standard Version - Keep going [79]. |\n| C151013 | MMS2-Keep Subtracting 7 Step 4 | MMS2-Keep Subtracting 7 Step 4 | Mini-Mental State Examination 2 Standard Version - Keep going [72]. |\n| C151014 | MMS2-Keep Subtracting 7 Step 5 | MMS2-Keep Subtracting 7 Step 5 | Mini-Mental State Examination 2 Standard Version - Keep going [65]. |\n| C151026 | MMS2-Level of Consciousness | MMS2-Level of Consciousness | Mini-Mental State Examination 2 Standard Version - Assessment of level of consciousness. |\n| C151015 | MMS2-Naming Object 1 | MMS2-Naming Object 1 | Mini-Mental State Examination 2 Standard Version - What is this: Object 1? |\n| C151016 | MMS2-Naming Object 2 | MMS2-Naming Object 2 | Mini-Mental State Examination 2 Standard Version - What is this: Object 2? |\n| C151018 | MMS2-Point to the Circle | MMS2-Point to the Circle | Mini-Mental State Examination 2 Standard Version - Look at these pictures and point to the circle. |\n| C151019 | MMS2-Point to the Square | MMS2-Point to the Square | Mini-Mental State Examination 2 Standard Version - Then point to the square. |\n| C151020 | MMS2-Point to the Triangle | MMS2-Point to the Triangle | Mini-Mental State Examination 2 Standard Version - Then point to the triangle. |\n| C151007 | MMS2-Recall Word 1 | MMS2-Recall Word 1 | Mini-Mental State Examination 2 Standard Version - What were those three words I asked you to remember: Word 1? |\n| C151008 | MMS2-Recall Word 2 | MMS2-Recall Word 2 | Mini-Mental State Examination 2 Standard Version - What were those three words I asked you to remember: Word 2? |\n| C151009 | MMS2-Recall Word 3 | MMS2-Recall Word 3 | Mini-Mental State Examination 2 Standard Version - What were those three words I asked you to remember: Word 3? |\n| C151017 | MMS2-Repeat What I Say | MMS2-Repeat What I Say | Mini-Mental State Examination 2 Standard Version - Now I am going to ask you to repeat what I say. Ready? \"It is a lovely, sunny day but too warm.\" Now you say that. |\n| C150994 | MMS2-Repeat Word 1 | MMS2-Repeat Word 1 | Mini-Mental State Examination 2 Standard Version - Now repeat those words back to me: Word 1. |\n| C150995 | MMS2-Repeat Word 2 | MMS2-Repeat Word 2 | Mini-Mental State Examination 2 Standard Version - Now repeat those words back to me: Word 2. |\n| C150996 | MMS2-Repeat Word 3 | MMS2-Repeat Word 3 | Mini-Mental State Examination 2 Standard Version - Now repeat those words back to me: Word 3. |\n| C151025 | MMS2-SV Total Raw Score | MMS2-SV Total Raw Score | Mini-Mental State Examination 2 Standard Version - SV (Standard Version) total raw score. |\n| C151010 | MMS2-What is 100 Take Away 7 | MMS2-What is 100 Take Away 7 | Mini-Mental State Examination 2 Standard Version - What is 100 take away 7 [93]? |\n| C151005 | MMS2-What Is the Building | MMS2-What Is the Building | Mini-Mental State Examination 2 Standard Version - Where are we now? What is the building (name or type)? |\n| C151004 | MMS2-What Is the City/Town | MMS2-What Is the City/Town | Mini-Mental State Examination 2 Standard Version - Where are we now? Wh\n...(truncated)\n\n---\n\n### [15] model/06_relationship_datasets.md -- 6.2 Supplemental Qualifiers (SUPP--)  (similarity: 0.610)\n\n## 6.2 Supplemental Qualifiers (SUPP--)\n\n**Structure:** One record per supplemental qualifier per related parent domain record(s)\n\nThe Supplemental Qualifiers datasets provide a mechanism for including non-standard variables that cannot be accommodated in the standard domain datasets.\n\n### Variables (13 variables)\n\n| # | Variable | Label | Type | Role | Notes |\n|---|----------|-------|------|------|-------|\n| 1 | STUDYID | Study Identifier | Char | Identifier | |\n| 2 | RDOMAIN | Related Domain Abbreviation | Char | Identifier | 2-character abbreviation for the domain of the parent record(s) |\n| 3 | USUBJID | Unique Subject Identifier | Char | Identifier | |\n| 4 | APID | Associated Persons Identifier | Char | Identifier | |\n| 5 | POOLID | Pool Identifier | Char | Identifier | |\n| 6 | SPDEVID | Sponsor Device Identifier | Char | Identifier | |\n| 7 | IDVAR | Identifying Variable | Char | Identifier | Identifying variable in the parent dataset that identifies the related record(s) |\n| 8 | IDVARVAL | Identifying Variable Value | Char | Identifier | Value of identifying variable of the parent record(s) |\n| 9 | QNAM | Qualifier Variable Name | Char | Topic | 8-character name for the supplemental qualifier |\n| 10 | QLABEL | Qualifier Variable Label | Char | Synonym Qualifier | Human-readable label associated with QNAM |\n| 11 | QVAL | Data Value | Char | Result Qualifier | The actual data value |\n| 12 | QORIG | Origin | Char | Record Qualifier | Source of the data: \"CRF\", \"ASSIGNED\", \"DERIVED\" |\n| 13 | QEVAL | Evaluator | Char | Record Qualifier | Role of the evaluator |\n\n### Naming Convention\n\nSeparate Supplemental Qualifier datasets of the form `supp--.xpt` are required (e.g., `suppae.xpt`, `suppcm.xpt`). The RDOMAIN variable identifies which parent domain the supplemental data belongs to.\n\n---\n\n",
    "off_answer": "Based on the provided knowledge base, here are the details for the SUPPQUAL variable **QNAM**:\n\n### Definition\n**QNAM** stands for **Qualifier Variable Name**. It serves as the short name (up to 8 characters) for a non-standard variable in a Supplemental Qualifiers dataset. It is the Topic variable for the SUPPQUAL structure and is used as a column name when the parent domain data is transposed with its supplemental qualifiers. **[Source: domains/SUPPQUAL/spec.md]**\n\n### Character Constraints\nValues for QNAM must adhere to specific restrictions to ensure compatibility with SAS V5 transport fil",
    "on_v2_answer": "**QNAM** is the **Qualifier Variable Name** in the SUPPQUAL (Supplemental Qualifiers) dataset. It provides a short name for a non-standard variable, acting as a column name when the supplemental qualifier is transposed into a domain view alongside the parent domain’s data **[Source: domains/SUPPQUAL/spec.md]**.\n\nCharacter constraints for QNAM are as follows:\n\n- **Maximum length:** 8 characters **[Source: domains/SUPPQUAL/spec.md]**; this mirrors the restriction on `--TESTCD` because QNAM serves the same purpose within supplemental qualifier datasets **[Source: chapters/ch04_general_assumptions.md, §4.2.1]**.\n- **Allowed characters:** Only letters, numbers, and underscores. No other characters (e.g., no hyphens, spaces, or special symbols) are permitted **[Source: domains/SUPPQUAL/spec.md]; [Source: chapters/ch04_general_assumptions.md, §4.2.1]**.\n- **Cannot start with a number:** QNAM values must begin with a letter or underscore, not a digit (e.g., `1TEST` is invalid) **[Source: domains/SUPPQUAL/spec.md]; [Source: chapters/ch04_general_assumptions.md, §4.2.1]**."
  },
  {
    "id": "q66",
    "category": "cross_domain",
    "question": "Which SDTM domains include the VISITNUM timing variable?",
    "expected_facts": [
      "VISITNUM",
      "Visit Number",
      "LB",
      "VS"
    ],
    "on_v2_fact_misses": [
      "Visit Number",
      "LB",
      "VS"
    ],
    "retrieved_context": "### [1] VARIABLE_INDEX.md -- SV — Subject Visits (Special-Purpose)  (similarity: 0.545)\n\n### SV — Subject Visits (Special-Purpose)\n\n| 变量名 | Label | Type | Role | Core | CT |\n|--------|-------|------|------|------|----|\n| SVPRESP | Pre-specified | Char | Variable Qualifier | Exp | C66742 |\n| SVOCCUR | Occurrence | Char | Record Qualifier | Exp | C66742 |\n| SVREASOC | Reason for Occur Value | Char | Record Qualifier | Perm | — |\n| SVCNTMOD | Contact Mode | Char | Record Qualifier | Perm | C171445 |\n| SVEPCHGI | Epi/Pandemic Related Change Indicator | Char | Record Qualifier | Perm | C66742 |\n| SVSTDTC | Start Date/Time of Observation | Char | Timing | Exp | ISO 8601 datetime or interval |\n| SVENDTC | End Date/Time of Observation | Char | Timing | Exp | ISO 8601 datetime or interval |\n| SVSTDY | Study Day of Start of Observation | Num | Timing | Perm | — |\n| SVENDY | Study Day of End of Observation | Num | Timing | Perm | — |\n| SVUPDES | Description of Unplanned Visit | Char | Record Qualifier | Perm | — |\n\n\n\n---\n\n### [2] domains/EX/assumptions.md -- item_4  (similarity: 0.677)\n\n4. Timing variables\n   a. The timing of exposure to study treatment is captured by the start/end date and start/end time of each constant-dosing interval. If the subject is only exposed to study medication within a clinical encounter (e.g., if an injection is administered at the clinic), VISITNUM may be added to the domain as an additional timing variable. VISITDY and VISIT would then also be permissible qualifiers. However, if the beginning and end of a constant-dosing interval is not confined within the time limits of a clinical encounter (e.g., if a subject takes pills at home), then it is not appropriate to include VISITNUM in the EX domain. This is because EX is designed to capture the timing of exposure to treatment, not the timing of dispensing treatment. Further, VISITNUM should not be used to indicate that treatment began at a particular visit and continued for a period of time. The SDTM does not have any provision for recording \"start visit\" and \"end visit\" of exposure.\n   b. For administrations considered given at a point in time (e.g., oral tablet, pre-filled syringe injection), where only an administration date/time is collected, EXSTDTC should be copied to EXENDTC as the standard representation.\n\n---\n\n### [3] chapters/ch04_general_assumptions.md -- 4.4.5 Clinical Encounters and Visits  (similarity: 0.683)\n\n### 4.4.5 Clinical Encounters and Visits\n\nAll domains based on the 3 general observation classes should have at least 1 timing variable. For domains in the Events or Interventions observation classes, this could be the start date of the event or intervention. In the Findings observation class, where data are usually collected at multiple visits, at least 1 timing variable must be used.\n\nFor planned visits, values of VISIT, VISITNUM, and VISITDY must be those defined in the Trial Visits (TV) dataset. For planned visits:\n\n- **VISITNUM**: numeric, used for sorting; values should wherever possible match the planned chronological order of visits. Occasionally, a protocol will define a planned visit whose timing is unpredictable (e.g., planned in response to an adverse event, a threshold test value, or a disease event), and completely chronological values of VISITNUM may not be possible in such cases.\n- **VISIT**: character name of the visit from the protocol\n- **VISITDY**: the planned study day **of the start of the visit** (not the actual study day; do not use --DY); for visits that may last more than 1 calendar day, VISITDY should be the planned day of the start of the visit\n- There must be a **one-to-one relationship** between VISIT and VISITNUM\n\nSponsor practices for populating visit variables for **unplanned visits** may vary:\n\n- VISITNUM should generally be populated, even for unplanned visits, as it is expected in many Findings domains. The easiest method of populating VISITNUM for unplanned visits is to assign the **same value (e.g., 99)** to all unplanned visits, although this method provides no differentiation between the unplanned visits and does not provide chronological sorting. Methods that provide a one-to-one relationship between values of VISITNUM, that are consistent across domains, and that assign VISITNUM values that sort chronologically require more work and must be applied after all of a subject's unplanned visits are known.\n- VISIT may be left null or may be populated with a generic value (e.g., \"Unscheduled\") for all unplanned visits, or individual values may be assigned to different unplanned visits.\n- VISITDY must **not** be populated for unplanned visits; VISITDY is, by definition, the planned study day of visit. The actual study day of an unplanned visit belongs in a --DY variable.\n\n**Example** (lb.xpt sample rows showing how visit identifiers might be used for lab data):\n\n| USUBJID | VISIT | VISITNUM | VISITDY | LBDY |\n|---------|-------|----------|---------|------|\n| 001 | Week 1 | 2 | | |\n| 001 | Week 2 | 3 | 14 | 13 |\n| 001 | Week 2 Unscheduled | 3.1 | | 17 |\n\n\n\n---\n\n### [4] domains/SU/assumptions.md -- item_4  (similarity: 0.685)\n\n4. Timing variables\n   a. SUSTDTC and SUENDTC may be populated as required.\n   b. If substance use information is collected more than once within the CRF (indicating that the data are visit-based) then VISITNUM would be added to the domain as an additional timing variable. VISITDY and VISIT would then be permissible variables.\n\n---\n\n### [5] model/01_concepts_and_terms.md -- 2.1 Model Concepts and Terms — Variables  (similarity: 11.193)\n\n## 2.1 Model Concepts and Terms — Variables\n\nThe SDTM provides a general framework for describing the organization of information collected during human and animal studies. The model is built around the concept of **observations**, which consist of discrete pieces of information collected during a study. Observations normally correspond to rows in a dataset. A **domain** is a collection of observations on a particular topic. For example, \"Subject 101 had an adverse event of mild nausea starting on study day 6\" is an observation belonging to the Adverse Events domain in a clinical trial.\n\nThe primary purpose of the SDTM is to represent data about study subjects — which may be humans or animals — or medical devices. The SDTM includes a general model for representing data in 3 \"general observation\" classes. Within those classes, data are grouped by topic into domains, represented in separate datasets.\n\n### Concept Map: Relationships Between SDTM Domains\n\n```mermaid\ngraph TD\n    %% Key:\n    %% Plain rounded box = Group of individually specified datasets\n    %% Filled box (:::extensible) = Extensible set of domains based on a common model\n\n    SDTM[\"Study Data TabulationModel\"]\n\n    SDTM -->|includes| SD[\"Domains forSubject Data\"]\n    SDTM -->|includes| AP[\"Domains forAssociatedPersons Data\"]\n    SDTM -->|includes| SL[\"Domains forStudy-Level Data\"]\n    SDTM -->|includes| RD[\"RelationshipDatasets\"]:::extensible\n\n    SD -->|include| GOC[\"GeneralObservation ClassDomains\"]:::extensible\n    SD -->|include| SPD[\"SpecialPurposeDomains\"]:::extensible\n\n    GOC -->|include| EV[\"EventsDomains\"]:::extensible\n    GOC -->|include| IV[\"InterventionsDomains\"]:::extensible\n    GOC -->|include| FI[\"FindingsDomains\"]:::extensible\n\n    FI -->|subtype of| FA[\"Findings AboutDomains\"]:::extensible\n\n    SL -->|include| TDM[\"Trial DesignModel\"]:::extensible\n    SL -->|include| SRS[\"Study ReferenceDatasets\"]\n\n    classDef extensible fill:#c8e6c9,stroke:#388e3c,color:#1b5e20\n```\n\n> **Key:** Plain box = Group of individually specified datasets. Green filled box = Extensible set of domains based on a common model.\n\n### Variable Roles\n\nAll datasets are structured as flat files with rows representing observations and columns representing variables; each dataset is described by metadata definitions that provide information about the variables used in the dataset. Metadata are described in the CDISC Define-XML specification.\n\nEach observation consists of a series of named variables. Each variable, which normally corresponds to a column in a dataset, can be classified according to its **role**. A role describes the type of information conveyed by the variable about each distinct observation and how it can be used. There are variables which play different roles in different datasets. This is most common for variables which appear in both trial design datasets and general observation class datasets. For example, ARMCD is the topic variable in Trial Arms (TA), but a record qualifier in Demographics (DM) and Trial Visits (TV). Variables which appear in multiple general observation classes have the same role, although the variable qualified by a variable qualifier or synonym qualifier can be different in different general observation classes. For example, --MODIFY qualifies --TRT in interventions, --TERM in events, and --ORRES in findings.\n\nSDTM variables can be classified into 5 major roles:\n\n1. **Identifier variables** — identify the study, subject, domain, and sequence number of the record\n2. **Topic variables** — specify the focus of the observation (e.g., the name of a lab test)\n3. **Timing variables** — describe the timing of an observation (e.g., start date, end date)\n4. **Qualifier variables** — include additional illustrative text or numeric values that describe the results or additional traits of the observation (e.g., units, descriptive adjectives)\n5. **Rule variables** — describe conditions for starting, ending, branching, or looping in the Trial Design Mode\n...(truncated)\n\n---\n\n### [6] chapters/ch02_fundamentals.md -- whole_file  (similarity: 9.409)\n\n# SDTMIG v3.4 — Chapter 2: Fundamentals of the SDTM\n\nSource: SDTMIG v3.4, Section 2 (Pages 13-20)\n\n## Section 1 Context (Reference Material)\n\nThe following statements from Section 1 of the SDTMIG provide reference context for the fundamentals presented in this chapter.\n\n### From §1.2 Organization of this Document (p7)\n\nThis document is organized into the following sections:\n\n### From §1.4 How to Read this Implementation Guide (p9)\n\nThe following guides are available at https://www.cdisc.org/standards/foundational/sdtmig:\n\n### From §1.4.1 How to Read a Domain Specification (pp 9-10)\n\n- Variable Label: A longer name for the variable\n- This may be the same as the label in the SDTM, or it may be customized for the domain.\n- The name of an external code system (e.g., MedDRA) will be listed in plain text.\n\n## 2.1 Observations and Variables\n\nThe SDTMIG for Human Clinical Trials is based on the SDTM's general framework for organizing clinical trial information that is to be submitted to regulatory authorities. The SDTM is built around the concept of **observations** collected about subjects who participated in a clinical study. Each observation can be described by a series of variables, corresponding to a row in a dataset. Each variable can be classified according to its **role**.\n\n### Variable Roles (5 major roles)\n\n1. **Identifier variables** — identify the study, subject, domain, and sequence number of the record\n2. **Topic variables** — specify the focus of the observation (e.g., the name of a lab test)\n3. **Timing variables** — describe the timing of an observation (e.g., start date and end date)\n4. **Qualifier variables** — include additional illustrative text or numeric values that describe the results or additional traits\n5. **Rule variables** — describe the condition to start, end, branch, or loop in the Trial Design Model\n\n### Qualifier Variable Subclasses\n\n| Subclass | Purpose | Examples |\n|----------|---------|----------|\n| **Grouping Qualifiers** | Group together a collection of observations within the same domain | --CAT, --SCAT |\n| **Result Qualifiers** | Describe the specific results associated with the topic variable (Findings only) | --ORRES, --STRESC, --STRESN |\n| **Synonym Qualifiers** | Specify an alternative name for a particular variable | --MODIFY, --DECOD (for --TRT/--TERM); --TEST, --LOINC (for --TESTCD) |\n| **Record Qualifiers** | Define additional attributes of the observation record as a whole (rather than describing a particular variable within a record) | --REASND, AESLIFE and other SAE flags (AE domain); AGE, SEX, RACE (DM domain); --BLFL, --POS, --LOC, --SPEC, --NAM (Findings) |\n| **Variable Qualifiers** | Modify or describe a specific variable within an observation; are only meaningful in the context of the variable they qualify | --ORRESU, --ORNRHI, --ORNRLO (Variable Qualifiers of --ORRES); --DOSU (Variable Qualifier of --DOSE) |\n\n**Example:** In the observation \"Subject 101 had mild nausea starting on study day 6\":\n- Topic variable value = \"NAUSEA\"\n- Identifier variable: subject identifier \"101\"\n- Timing variable: \"starting on study day 6\"\n- Record Qualifier: severity = \"MILD\"\n\n## 2.2 Datasets and Domains\n\nA **domain** is a collection of logically related observations with a common topic. Each domain is represented by a single dataset.\n\nEach domain dataset is distinguished by a unique, 2-character code (DOMAIN) used in 4 ways:\n1. As the dataset name\n2. As the value of the DOMAIN variable in that dataset\n3. As a prefix for most variable names in that dataset\n4. As a value in the RDOMAIN variable in relationship tables\n\nAll datasets are structured as flat files with rows representing observations and columns representing variables. Metadata are described in a Define-XML document that is submitted with the data.\n\nThe SDTM lists only the name, label, and type of each variable, with a brief set of CDISC guidelines for its use. The domain dataset models in Section 5, Models for Special-purpose Domains, a\n...(truncated)\n\n---\n\n### [7] domains/AG/spec.md -- VISIT  (similarity: 0.657)\n\n### VISIT\n- **Order:** 27\n- **Label:** Visit Name\n- **Type:** Char\n- **Controlled Terms:** \n- **Role:** Timing\n- **Core:** Perm\n- **CDISC Notes:** 1. Protocol-defined description of clinical encounter.  2. May be used in addition to VISITNUM and/or VISITDY.\n\n\n\n---\n\n### [8] chapters/ch04_general_assumptions.md -- 4.2.2 Two-character Domain Identifier  (similarity: 8.366)\n\n### 4.2.2 Two-character Domain Identifier\n\nIn order to minimize the risk of difficulty when merging/joining domains for reporting purposes, the 2-character domain identifier is used as a prefix in most variable names.\n\nVariables in domain specification tables (see Section 5, Models for Special-purpose Domains; Section 6, Domain Models Based on the General Observation Classes; Section 7, Trial Design Model Datasets; Section 8, Representing Relationships and Data; and Section 9, Study References) already specify the complete variable names. When adding variables from the SDTM to standard domains or creating custom domains based on the general observation classes, sponsors must replace the \"--\" prefix in the SDTM tables of General Observation Class, Timing, and Identifier variables with the 2-character domain identifier (DOMAIN) value for that domain/dataset. The 2-character domain code is limited to A-Z for the first character, and A-Z, 0-9 for the second character. No other characters are allowed. This is for compatibility with SAS v5 transport files and with file naming requirements as part of the Electronic Common Technical Document (eCTD).\n\nThe following variables are exceptions to the philosophy that all variable names are prefixed with the domain identifier:\n\n- Required Identifiers (STUDYID, DOMAIN, USUBJID)\n- Commonly used grouping and merge keys (e.g., VISIT, VISITNUM, VISITDY)\n- All Demographics (DM) domain variables other than DMDTC and DMDY\n- All variables in RELREC and SUPPQUAL, and some variables in the Comments and Trial Design datasets\n\nRequired identifiers are not prefixed because they are usually used as keys when merging/joining observations. The --SEQ and the optional Identifiers --GRPID and --REFID are prefixed because they may be used as keys when relating observations across domains.\n\n\n\n---\n\n### [9] domains/FA/spec.md -- VISIT  (similarity: 0.656)\n\n### VISIT\n- **Order:** 25\n- **Label:** Visit Name\n- **Type:** Char\n- **Controlled Terms:** \n- **Role:** Timing\n- **Core:** Perm\n- **CDISC Notes:** 1. Protocol-defined description of clinical encounter.  2. May be used in addition to VISITNUM and/or VISITDY.\n\n\n\n---\n\n### [10] chapters/ch03_submitting_data.md -- whole_file  (similarity: 8.070)\n\n# SDTMIG v3.4 — Chapter 3: Submitting Data in Standard Format\n\nSource: SDTMIG v3.4, Section 3 (Pages 17-21)\n\n## 3.1 Standard Metadata for Dataset Contents and Attributes\n\nThe SDTMIG provides standard descriptions of some of the most commonly used data domains, with metadata attributes. These include descriptive metadata attributes that should be included in a Define-XML document. In addition, the CDISC domain models include 2 shaded columns that are not sent to the FDA, but which assist sponsors:\n\n- **CDISC Notes column** — information regarding the relevant use of each variable\n- **Core column** — indicates how a variable is classified (see Section 4.1.5, SDTM Core Designations)\n\nThe domain models in Section 6, Domain Models Based on the General Observation Classes, illustrate how to apply the SDTM when creating a specific domain dataset. In particular, these models illustrate the selection of a subset of the variables offered in 1 of the general observation classes, along with applicable timing variables. The models also show how a standard variable from a general observation class should be adjusted to meet the specific content needs of a particular domain, including making the label more meaningful, specifying controlled terminology, and creating domain-specific notes and examples. Thus, the domain models not only demonstrate how to apply the model for the most common domains but also give insight on how to apply general model concepts to other domains not yet defined by CDISC.\n\n## 3.2 Using the CDISC Domain Models in Regulatory Submissions — Dataset Metadata\n\nThe Define-XML document that accompanies a submission should also describe each dataset that is included in the submission and describe the natural key structure of each dataset. In addition, comments can also be provided where needed. Most studies will include Demographics (DM) and a set of safety domains based on the 3 general observation classes — typically including Exposure (EX), Concomitant and Prior Medications (CM), Adverse Events (AE), Disposition (DS), Medical History (MH), Laboratory Test Results (LB), and Vital Signs (VS). However, choosing which data to submit will depend on the protocol and the needs of the regulatory review division or agency.\n\nDataset definition metadata should include:\n- Dataset filenames, descriptions, locations, structures, class, purpose, and keys\n\n**Note:** \"In the event that no records are present in a dataset (e.g., a small PK study where no subjects took concomitant medications), the empty dataset should not be submitted and should not be described in the Define-XML document.\"\n\n### 3.2.1 Dataset-level Metadata\n\n**Note:** The key variables shown in this table are examples only. A sponsor's actual key structure may be different. The order of classes and datasets in this table is not intended as a normative order of datasets in a submission.\n\nThe Dataset-level Metadata table provides examples of dataset structures:\n\n| Dataset | Description | Class | Structure | Purpose | Keys | Location |\n|---------|-------------|-------|-----------|---------|------|----------|\n| CO | Comments | Special Purpose | One record per comment per subject | Tabulation | STUDYID, USUBJID, IDVAR, COREF, COOTC | co.xpt |\n| DM | Demographics | Special Purpose | One record per subject | Tabulation | STUDYID, USUBJID | dm.xpt |\n| SE | Subject Elements | Special Purpose | One record per actual Element per subject | Tabulation | STUDYID, USUBJID, ETCD, SESTDTC | se.xpt |\n| SM | Subject Disease Milestones | Special Purpose | One record per Disease Milestone per subject | Tabulation | STUDYID, USUBJID, MIDS | sm.xpt |\n| SV | Subject Visits | Special Purpose | One record per actual or planned visit per subject | Tabulation | STUDYID, USUBJID, SVTERM | sv.xpt |\n| AG | Procedure Agents | Interventions | One record per recorded intervention occurrence per subject | Tabulation | STUDYID, USUBJID, AGTRT, AGSTDTC | ag.xpt |\n| CM | Concomitant/Prior Medications | Interven\n...(truncated)\n\n---\n\n### [11] domains/IE/spec.md -- VISIT  (similarity: 0.654)\n\n### VISIT\n- **Order:** 13\n- **Label:** Visit Name\n- **Type:** Char\n- **Controlled Terms:** \n- **Role:** Timing\n- **Core:** Perm\n- **CDISC Notes:** Protocol-defined description of clinical encounter. May be used in addition to VISITNUM and/or VISITDY.\n\n\n\n---\n\n### [12] chapters/ch01_introduction.md -- whole_file  (similarity: 7.873)\n\n# SDTMIG v3.4 — Chapter 1: Introduction\n\nSource: SDTMIG v3.4, Section 1 (Pages 7-12)\n\n## 1.1 Purpose\n\nThe Study Data Tabulation Model Implementation Guide for Human Clinical Trials (SDTMIG) Version 3.4 has been prepared by the Submissions Data Standards (SDS) team of the Clinical Data Interchange Standards Consortium (CDISC). Like its predecessors, v3.4 is intended to guide the organization, structure, and format of standard clinical trial tabulation datasets submitted to a regulatory authority. Version 3.4 supersedes all prior versions of the SDTMIG.\n\nThe SDTMIG should be used in close concert with Version 2.0 of the CDISC Study Data Tabulation Model (SDTM), which describes the general conceptual model for representing clinical study data that is submitted to regulatory authorities and should be read prior to reading the SDTMIG. SDTMIG Version 3.4 provides specific domain models, assumptions, business rules, and examples for preparing standard tabulation datasets that are based on the SDTM.\n\nThis document is intended for companies and individuals involved in the collection, preparation, and analysis of clinical data that will be submitted to regulatory authorities.\n\n## 1.2 Organization of this Document\n\n| Section | Title | Description |\n|---------|-------|-------------|\n| 1 | Introduction | Overall introduction to v3.4 models; changes from prior versions |\n| 2 | Fundamentals of the SDTM | Basic concepts of the SDTM; how to use SDTMIG with SDTM |\n| 3 | Submitting Data in Standard Format | How to describe metadata for regulatory submissions; conformance assessment |\n| 4 | Assumptions for Domain Models | Basic concepts, business rules, and assumptions before applying domain models |\n| 5 | Models for Special-purpose Domains | Special-purpose domains: Demographics, Comments, Subject Visits, Subject Elements |\n| 6 | Domain Models Based on the General Observation Classes | Specific metadata models based on the 3 GOC, with assumptions and examples |\n| 7 | Trial Design Model Datasets | Domains for trial-level data, with assumptions and examples |\n| 8 | Representing Relationships and Data | How to represent relationships between domains, datasets, and records |\n| 9 | Study References | Structures for study-specific terminology used in subject data |\n| 10 | Appendices | Additional background material and supplemental material |\n\n## 1.3 Relationship to Prior CDISC Documents\n\nThis document, together with the SDTM, represents the most recent version of the CDISC submission data domain models. All updates are intended to be backward-compatible. A detailed list of changes between versions is provided in Appendix E, Revision History.\n\nVersion 3.1 was the first fully implementation-ready version of the CDISC submission data standards that was directly referenced by the US FDA for use in human clinical studies involving drug products. However, future improvements and enhancements will continue to be made as sponsors gain more experience submitting data in this format. Therefore, CDISC will be preparing regular updates to the implementation guide to provide corrections, clarifications, additional domain models, examples, business rules, and conventions for using the standard domain models. Because CDISC will produce further documentation for Controlled Terminology as separate publications, sponsors are encouraged to check the CDISC website (https://www.cdisc.org/standards/terminology/controlled-terminology) frequently for additional information. See Section 4.3, Coding and Controlled Terminology Assumptions, for the most up-to-date information on applying Controlled Terminology.\n\nThe most significant changes since SDTMIG v3.3 include:\n\n- Expanded the scope of the DA domain to include study products in addition to study drugs\n- Grouped specimen-based lab domains (e.g., CP, GF, LB) in Sections 6.3.5.1-6.3.5.9 and added a generic specification\n- Expanded the scope of the IS domain for assessments of antigen-induced humoral or cell-mediated immune r\n...(truncated)\n\n---\n\n### [13] domains/CV/spec.md -- VISIT  (similarity: 0.653)\n\n### VISIT\n- **Order:** 32\n- **Label:** Visit Name\n- **Type:** Char\n- **Controlled Terms:** \n- **Role:** Timing\n- **Core:** Perm\n- **CDISC Notes:** Protocol-defined description of clinical encounter. May be used in addition to VISITNUM and/or VISITDY.\n\n\n\n---\n\n### [14] chapters/ch04_general_assumptions.md -- 4.3.7 Use of \"Yes\" and \"No\" Values  (similarity: 7.774)\n\n### 4.3.7 Use of \"Yes\" and \"No\" Values\n\nVariables where the response is \"Yes\" or \"No\" (\"Y\" or \"N\") should normally be populated for both \"Y\" and \"N\" responses. This eliminates confusion regarding whether a blank response indicates \"N\" or is a missing value.\n\nHowever, some variables are collected or derived in a manner that allows only 1 response, such as when a single checkbox indicates \"Yes\". In such situations, where it is unambiguous to populate only the response of interest, it is permissible to populate only 1 value (\"Y\" or \"N\") and leave the alternate value blank. An example of when it would be acceptable to use only a value of \"Y\" would be for Last Observation Before Exposure Flag (--LOBXFL), where \"N\" is not necessary to indicate that a value is not the last observation before exposure.\n\n> **Note:** Permissible values for variables with controlled terms of \"Y\" or \"N\" may be extended to include \"U\" or \"NA\" if it is the sponsor's practice to explicitly collect or derive values indicating \"Unknown\" or \"Not Applicable\" for that variable.\n\n---\n\n## 4.4 Actual and Relative Time Assumptions\n\nTiming variables (SDTM Section 3.1.5, Timing Variables for All Classes) are an essential component of all SDTM subject-level domain datasets. In general, all domains based on the 3 general observation classes should have at least 1 timing variable. In the Events or Interventions general observation class, this could be the start date of the event or intervention. In the Findings observation class, where data are usually collected at multiple visits, at least 1 timing variable must be used.\n\nThe SDTMIG requires dates and times of day to be stored according to the international standard ISO 8601 (http://www.iso.org). ISO 8601 provides a text-based representation of dates and/or times, intervals of time, and durations of time.\n\n\n\n---\n\n### [15] domains/MI/spec.md -- VISIT  (similarity: 0.653)\n\n### VISIT\n- **Order:** 32\n- **Label:** Visit Name\n- **Type:** Char\n- **Controlled Terms:** \n- **Role:** Timing\n- **Core:** Perm\n- **CDISC Notes:** Protocol-defined description of clinical encounter. May be used in addition to VISITNUM and/or VISITDY.\n\n",
    "off_answer": "VISITNUM is a **Timing** variable (Char, Permissible) used to record the planned numeric visit identifier. It is drawn from the Trial Visits (TV) dataset and, as described in SDTMIG §4.4.5, must be populated for planned visits and is generally expected in domains where data are collected at scheduled clinical encounters, particularly Findings domains. It can be added to any domain where observations are visit‑based, as long as the protocol defines the visit structure.\n\nDomains that include **VISITNUM** in the standard SDTMIG v3.4 specification (either as a variable in the domain model or as an",
    "on_v2_answer": "Based on the retrieved context, I cannot provide a comprehensive list of all SDTM domains that include VISITNUM. The context contains only partial references, not a full domain-by-domain specification.\n\n**Explicit mentions in the context:**\n\n- **EX (Exposure):** VISITNUM may be added to the domain when exposure is confined to a clinical encounter (e.g., an injection administered at a clinic). **[Source: domains/EX/assumptions.md, item 4]**\n- **SU (Substance Use):** VISITNUM would be added if substance use information is collected more than once (visit-based). **[Source: domains/SU/assumptions.md, item 4]**\n\n**General rule for Findings domains:**\n\nThe general assumptions state that for planned visits, VISITNUM (along with VISIT and VISITDY) is expected to be populated according to the Trial Visits (TV) dataset, and that Findings domains typically require at least one timing variable. However, no specific list of Findings domains is enumerated in the context. **[Source: chapters/ch04_general_assumptions.md, section 4.4.5]**\n\nTherefore, while I can confirm that VISITNUM is explicitly allowed or conditionally added to EX and SU, the provided context does not contain a definitive list of all SDTM domains that include this variable. To obtain a complete list, you would need to consult the full SDTM variable index or the domain-specific specification files."
  },
  {
    "id": "q81",
    "category": "concept",
    "question": "What rules govern the two-character DOMAIN code in SDTM? What characters are allowed for the first and second characters?",
    "expected_facts": [
      "2-character",
      "A-Z",
      "0-9"
    ],
    "on_v2_fact_misses": [
      "2-character",
      "A-Z",
      "0-9"
    ],
    "retrieved_context": "### [1] chapters/ch04_general_assumptions.md -- 4.2.2 Two-character Domain Identifier  (similarity: 0.713)\n\n### 4.2.2 Two-character Domain Identifier\n\nIn order to minimize the risk of difficulty when merging/joining domains for reporting purposes, the 2-character domain identifier is used as a prefix in most variable names.\n\nVariables in domain specification tables (see Section 5, Models for Special-purpose Domains; Section 6, Domain Models Based on the General Observation Classes; Section 7, Trial Design Model Datasets; Section 8, Representing Relationships and Data; and Section 9, Study References) already specify the complete variable names. When adding variables from the SDTM to standard domains or creating custom domains based on the general observation classes, sponsors must replace the \"--\" prefix in the SDTM tables of General Observation Class, Timing, and Identifier variables with the 2-character domain identifier (DOMAIN) value for that domain/dataset. The 2-character domain code is limited to A-Z for the first character, and A-Z, 0-9 for the second character. No other characters are allowed. This is for compatibility with SAS v5 transport files and with file naming requirements as part of the Electronic Common Technical Document (eCTD).\n\nThe following variables are exceptions to the philosophy that all variable names are prefixed with the domain identifier:\n\n- Required Identifiers (STUDYID, DOMAIN, USUBJID)\n- Commonly used grouping and merge keys (e.g., VISIT, VISITNUM, VISITDY)\n- All Demographics (DM) domain variables other than DMDTC and DMDY\n- All variables in RELREC and SUPPQUAL, and some variables in the Comments and Trial Design datasets\n\nRequired identifiers are not prefixed because they are usually used as keys when merging/joining observations. The --SEQ and the optional Identifiers --GRPID and --REFID are prefixed because they may be used as keys when relating observations across domains.\n\n\n\n---\n\n### [2] domains/TM/spec.md -- DOMAIN  (similarity: 0.658)\n\n### DOMAIN\n- **Order:** 2\n- **Label:** Domain Abbreviation\n- **Type:** Char\n- **Controlled Terms:** \n- **Role:** Identifier\n- **Core:** Req\n- **CDISC Notes:** Two-character abbreviation for the domain, which must be TM.\n\n\n\n---\n\n### [3] chapters/ch04_general_assumptions.md -- 4.4.1 Formats for Date/Time Variables  (similarity: 14.237)\n\n### 4.4.1 Formats for Date/Time Variables\n\nAn SDTM DTC variable may include data that is represented in ISO 8601 format as a complete date/time, a partial date/time, or an incomplete date/time.\n\nThe SDTMIG template uses ISO 8601 for calendar dates and times of day, which are expressed as follows:\n\n`YYYY-MM-DDThh:mm:ss(.n+)?(((+|-)hh:mm)|Z)?`\n\nwhere:\n\n- [YYYY] = four-digit year\n- [MM] = two-digit representation of the month (01-12, 01=January, etc.)\n- [DD] = two-digit day of the month (01 through 31)\n- [T] = (time designator) indicates time information follows\n- [hh] = two digits of hour (00 through 23) (am/pm is NOT allowed)\n- [mm] = two digits of minute (00 through 59)\n- [ss] = two digits of second (00 through 59)\n\nThe last two components, indicated in the format pattern with a question mark, are optional:\n\n- [(.n+)?] = optional fractions of seconds\n- [(((+|-)hh:mm)|Z)?] = optional time zone\n\nOther characters defined for use within the ISO 8601 standard are:\n\n- [-] (hyphen): to separate the time elements \"year\" from \"month\" and \"month\" from \"day\" and to represent missing date components\n- [:] (colon): to separate the time elements \"hour\" from \"minute\" and \"minute\" from \"second\"\n- [/] (solidus): to separate components in the representation of date/time intervals\n- [P] (duration designator): precedes the components that represent the duration\n\n> **Spaces are not allowed in any ISO 8601 representations.**\n\nKey aspects of the ISO 8601 standard are as follows:\n\n- ISO 8601 represents dates as a text string using the notation YYYY-MM-DD.\n- ISO 8601 represents times as a text string using the notation hh:mm:ss(.n+)?(((+|-)hh:mm)|Z)?.\n- The SDTM and the SDTMIG require use of the ISO 8601 **extended format**, which requires hyphen delimiters for date components and colon delimiters for time components. The ISO 8601 basic format, which does not require delimiters, should not be used in SDTM datasets.\n- When a date is stored with a time in the same variable (as a date/time), the date is written in front of the time and the time is preceded with \"T\" using the notation YYYY-MM-DDThh:mm:ss (e.g., 2001-12-26T00:00:01).\n\nImplementation of the ISO 8601 standard means that date/time variables are character/text data types. The SDTM fragment employed for date/time character variables is **DTC**.\n\n\n\n---\n\n### [4] domains/DA/spec.md -- DOMAIN  (similarity: 0.643)\n\n### DOMAIN\n- **Order:** 2\n- **Label:** Domain Abbreviation\n- **Type:** Char\n- **Controlled Terms:** \n- **Role:** Identifier\n- **Core:** Req\n- **CDISC Notes:** Two-character abbreviation for the domain.\n\n\n\n---\n\n### [5] chapters/ch04_general_assumptions.md -- 4.5.3 Text Strings that Exceed the Maximum Length for General Observation-class Domain Variables  (similarity: 12.835)\n\n### 4.5.3 Text Strings that Exceed the Maximum Length for General Observation-class Domain Variables\n\n#### 4.5.3.1 Test Name (--TEST) Greater than 40 Characters\n\nSponsors may have test descriptions (--TEST) longer than 40 characters in their operational database. Because the --TEST variable is meant to serve as a label for a --TESTCD when a Findings dataset is transposed to a more horizontal format, the length of --TEST is limited to 40 characters (except as noted below) to conform to the limitations of the SAS V5 transport file format. Therefore, sponsors have the choice to either insert the first 40 characters or a text string abbreviated to 40 characters in --TEST. Sponsors have the following options for including the full description for these variables in the study metadata:\n\n- If the annotated CRF contains the full text, provide a reference to the aCRF page containing the full test description in the Define-XML document origin definition for --TEST.\n- If the annotated CRF does not specify the full text, then the full text should be documented in the Define-XML document and/or other submission materials (e.g., the clinical study data reviewer's guide).\n\nThis convention should also be applied to the qualifier value label (QLABEL) in Supplemental Qualifiers (SUPP--) datasets.\n\n**Exception — IETEST in IE and TI domains:** IETEST values in the Inclusion/Exclusion Criteria Not Met (IE) and Trial Inclusion/Exclusion Criteria (TI) domains are exceptions to the 40-character rule and are limited to 200 characters, because these are not expected to be transformed to column labels. Values of IETEST that exceed 200 characters should be described in study metadata as per the convention above.\n\n#### 4.5.3.2 Text Strings Greater than 200 Characters in Other Variables\n\nSome sponsors may collect data values longer than 200 characters for some variables. Because of the current requirement for the SAS V5 transport file format, it is not possible to store long text strings using only 1 variable. Therefore, the SDTMIG has defined conventions for storing long text strings using multiple variables.\n\nFor general observation-class variables and supplemental qualifiers (i.e., non-standard variables, NSVs), the conventions are as follows:\n\n- The **first 200 characters** of text should be stored in the parent domain variable and each additional 200 characters of text should be stored in a record in the SUPP-- dataset (see Section 8.4, Relating Non-standard Variable Values to a Parent Domain)\n- When splitting a text string into several records, the text should be **split between words** to improve readability\n- When the text longer than 200 characters is for a supplemental qualifier, the **first QNAM should describe the NSV without any numeric suffix**\n- The value for QNAMs for additional text (>200 characters) should contain a **sequential variable name formed by appending a 1-digit integer, beginning with 1**, to the original domain variable name\n- The value for **QLABEL should be the original domain variable label**:\n  - The reason a digit integer or suffix is not appended to the label is because the long text string represents a single value for a variable; the physical representation (SAS V5 transport file format) does not change the concept described by the label\n  - This is conceptually different from when there are multiple values for a non-result qualifier variable and values are individually stored in SUPP-- (in that case, both QNAM and QLABEL must be uniquely named per Section 4.2.8.3, Multiple Values for a Non-result Qualifier Variable)\n  - In cases where the standard domain variable name is already 8 characters in length, sponsors should **replace the last character with a digit** when creating values for QNAM; for example, for Other Action Taken in Adverse Events (AEACNOTH), values for QNAM for the SUPPAE records would have the values AEACNOT1, AEACNOT2, and so on\n\n**Example 1 (mh.xpt / suppmh.xpt):** MHTERM was longer than 200 characte\n...(truncated)\n\n---\n\n### [6] domains/DD/spec.md -- DOMAIN  (similarity: 0.643)\n\n### DOMAIN\n- **Order:** 2\n- **Label:** Domain Abbreviation\n- **Type:** Char\n- **Controlled Terms:** \n- **Role:** Identifier\n- **Core:** Req\n- **CDISC Notes:** Two-character abbreviation for the domain.\n\n\n\n---\n\n### [7] domains/CO/assumptions.md -- item_4  (similarity: 11.474)\n\n4. When the comment text is longer than 200 characters, the first 200 characters of the comment will be in COVAL, the next 200 in COVAL1, and additional text stored as needed to COVALn. See Example 1, rows 3-4. Additional information about how to relate comments to parent SDTM records is provided in Section 8.5, Relating Comments to a Parent Domain.\n\n---\n\n### [8] domains/EX/spec.md -- DOMAIN  (similarity: 0.643)\n\n### DOMAIN\n- **Order:** 2\n- **Label:** Domain Abbreviation\n- **Type:** Char\n- **Controlled Terms:** \n- **Role:** Identifier\n- **Core:** Req\n- **CDISC Notes:** Two-character abbreviation for the domain.\n\n\n\n---\n\n### [9] chapters/ch02_fundamentals.md -- whole_file  (similarity: 10.384)\n\n# SDTMIG v3.4 — Chapter 2: Fundamentals of the SDTM\n\nSource: SDTMIG v3.4, Section 2 (Pages 13-20)\n\n## Section 1 Context (Reference Material)\n\nThe following statements from Section 1 of the SDTMIG provide reference context for the fundamentals presented in this chapter.\n\n### From §1.2 Organization of this Document (p7)\n\nThis document is organized into the following sections:\n\n### From §1.4 How to Read this Implementation Guide (p9)\n\nThe following guides are available at https://www.cdisc.org/standards/foundational/sdtmig:\n\n### From §1.4.1 How to Read a Domain Specification (pp 9-10)\n\n- Variable Label: A longer name for the variable\n- This may be the same as the label in the SDTM, or it may be customized for the domain.\n- The name of an external code system (e.g., MedDRA) will be listed in plain text.\n\n## 2.1 Observations and Variables\n\nThe SDTMIG for Human Clinical Trials is based on the SDTM's general framework for organizing clinical trial information that is to be submitted to regulatory authorities. The SDTM is built around the concept of **observations** collected about subjects who participated in a clinical study. Each observation can be described by a series of variables, corresponding to a row in a dataset. Each variable can be classified according to its **role**.\n\n### Variable Roles (5 major roles)\n\n1. **Identifier variables** — identify the study, subject, domain, and sequence number of the record\n2. **Topic variables** — specify the focus of the observation (e.g., the name of a lab test)\n3. **Timing variables** — describe the timing of an observation (e.g., start date and end date)\n4. **Qualifier variables** — include additional illustrative text or numeric values that describe the results or additional traits\n5. **Rule variables** — describe the condition to start, end, branch, or loop in the Trial Design Model\n\n### Qualifier Variable Subclasses\n\n| Subclass | Purpose | Examples |\n|----------|---------|----------|\n| **Grouping Qualifiers** | Group together a collection of observations within the same domain | --CAT, --SCAT |\n| **Result Qualifiers** | Describe the specific results associated with the topic variable (Findings only) | --ORRES, --STRESC, --STRESN |\n| **Synonym Qualifiers** | Specify an alternative name for a particular variable | --MODIFY, --DECOD (for --TRT/--TERM); --TEST, --LOINC (for --TESTCD) |\n| **Record Qualifiers** | Define additional attributes of the observation record as a whole (rather than describing a particular variable within a record) | --REASND, AESLIFE and other SAE flags (AE domain); AGE, SEX, RACE (DM domain); --BLFL, --POS, --LOC, --SPEC, --NAM (Findings) |\n| **Variable Qualifiers** | Modify or describe a specific variable within an observation; are only meaningful in the context of the variable they qualify | --ORRESU, --ORNRHI, --ORNRLO (Variable Qualifiers of --ORRES); --DOSU (Variable Qualifier of --DOSE) |\n\n**Example:** In the observation \"Subject 101 had mild nausea starting on study day 6\":\n- Topic variable value = \"NAUSEA\"\n- Identifier variable: subject identifier \"101\"\n- Timing variable: \"starting on study day 6\"\n- Record Qualifier: severity = \"MILD\"\n\n## 2.2 Datasets and Domains\n\nA **domain** is a collection of logically related observations with a common topic. Each domain is represented by a single dataset.\n\nEach domain dataset is distinguished by a unique, 2-character code (DOMAIN) used in 4 ways:\n1. As the dataset name\n2. As the value of the DOMAIN variable in that dataset\n3. As a prefix for most variable names in that dataset\n4. As a value in the RDOMAIN variable in relationship tables\n\nAll datasets are structured as flat files with rows representing observations and columns representing variables. Metadata are described in a Define-XML document that is submitted with the data.\n\nThe SDTM lists only the name, label, and type of each variable, with a brief set of CDISC guidelines for its use. The domain dataset models in Section 5, Models for Special-purpose Domains, a\n...(truncated)\n\n---\n\n### [10] domains/FT/spec.md -- DOMAIN  (similarity: 0.643)\n\n### DOMAIN\n- **Order:** 2\n- **Label:** Domain Abbreviation\n- **Type:** Char\n- **Controlled Terms:** \n- **Role:** Identifier\n- **Core:** Req\n- **CDISC Notes:** Two-character abbreviation for the domain.\n\n\n\n---\n\n### [11] domains/EG/assumptions.md -- item_10  (similarity: 9.966)\n\n10. If this domain is used in conjunction with the ECG QT Correction Model Data (QT) domain:\n    a. For each QT correction method used in the study, values of EGTESTCD and EGTEST are assigned at the study level.\n    b. The sponsor should assign values for EGTESTCD/EGTEST appropriately with clear documentation on what each test code represents. For example, if the protocol calls for computing the top two best fit models, the sponsor could choose to name the top best fit model QTCIAG1 and the second best fit model QTCIAG2, in rank order.\n\n---\n\n### [12] domains/BE/spec.md -- DOMAIN  (similarity: 0.643)\n\n### DOMAIN\n- **Order:** 2\n- **Label:** Domain Abbreviation\n- **Type:** Char\n- **Controlled Terms:** \n- **Role:** Identifier\n- **Core:** Req\n- **CDISC Notes:** Two-character abbreviation for the domain.\n\n\n\n---\n\n### [13] chapters/ch04_general_assumptions.md -- 4.2.1 Variable-Naming Conventions  (similarity: 9.817)\n\n### 4.2.1 Variable-Naming Conventions\n\nSDTM variables are named according to a set of conventions, using fragment names (see Appendix D, CDISC Variable-naming Fragments). Variables with names ending in \"CD\" are \"short\" versions of associated variables that do not include the \"CD\" suffix (e.g., --TESTCD is the short version of --TEST).\n\nValues of --TESTCD must be limited to 8 characters and cannot start with a number, nor can they contain characters other than letters, numbers, or underscores. This is to avoid possible incompatibility with SAS v5 transport files. This limitation will be in effect until the use of other formats (e.g., Dataset-XML) becomes acceptable to regulatory authorities.\n\nBecause QNAM serves the same purpose as --TESTCD within supplemental qualifier datasets, values of QNAM are subject to the same restrictions as values of --TESTCD.\n\nValues of other \"CD\" variables are **not** subject to the same restrictions as --TESTCD:\n\n- ETCD (the companion to ELEMENT) and TSPARMCD (the companion to TSPARM) are limited to 8 characters and do not have the character restrictions that apply to --TESTCD. These values should be short for ease of use in programming, but it is not expected that they will need to serve as variable names.\n- ARMCD is limited to 20 characters and does not have the character restrictions that apply to --TESTCD. The maximum length of ARMCD is longer than for other \"short\" variables to accommodate the kind of values that are likely to be needed for crossover trials. For example, if ARMCD values for a 7-period crossover were constructed using 2-character abbreviations for each treatment and separating hyphens, the length of ARMCD values would be 20. This same rule applies to the ACTARMCD variable.\n\nVariable descriptive names (labels), up to 40 characters, should be provided as data variable labels for all variables, including Supplemental Qualifier variables.\n\nUse of variable names (other than domain prefixes), formats, decodes, terminology, and data types for the same type of data (even for custom domains and Supplemental Qualifiers) should be consistent within and across studies within a submission.\n\n#### 4.2.1.1 --TEST and --TESTCD Conventions (Findings)\n\n- --TESTCD: standardized or dictionary-derived short sequence, up to 8 characters\n- --TEST: full descriptive name of the test\n- Both are subject to controlled terminology where available\n\n#### 4.2.1.2 --TRT Conventions (Interventions)\n\n- Contains the verbatim name of the treatment, drug, procedure, or therapy\n- Should represent the name as reported on the CRF\n\n#### 4.2.1.3 --TERM Conventions (Events)\n\n- Contains the verbatim or prespecified name of the event\n- Should represent the term as reported on the CRF\n\n\n\n---\n\n### [14] domains/CM/spec.md -- DOMAIN  (similarity: 0.643)\n\n### DOMAIN\n- **Order:** 2\n- **Label:** Domain Abbreviation\n- **Type:** Char\n- **Controlled Terms:** \n- **Role:** Identifier\n- **Core:** Req\n- **CDISC Notes:** Two-character abbreviation for the domain.\n\n\n\n---\n\n### [15] domains/CO/examples.md -- Example 1  (similarity: 9.432)\n\n## Example 1\n\n**Row 1:** Shows a comment collected on a separate comments page. Since it was unrelated to any specific domain or record, RDOMAIN, IDVAR, and IDVARVAL are null.\n\n**Row 2:** Shows a comment that was collected on the bottom of the PE page for Visit 7, without any indication of specific records it applied to. Since the comment related to a specific domain, RDOMAIN is populated. Since it was related to a specific visit, VISIT, COREF is \"VISIT 7\". However, since it does not relate to a specific record, IDVAR and IDVARVAL are null.\n\n**Row 3:** Shows a comment related to a single AE record having its AESEQ=7.\n\n**Row 4:** Shows a comment related to multiple EX records with EXGRPID = \"COMBO1\".\n\n**Row 5:** Shows a comment related to multiple VS records with VSGRPID = \"VS2\".\n\n**Row 6:** Shows one option for representing a comment collected on a visit-specific comments page not associated with a particular domain. In this case, the comment is linked to the Subject Visit record in SV (RDOMAIN = \"SV\") and IDVAR and IDVARVAL are populated link the comment to the particular visit.\n\n**Row 7:** Shows a second option for representing a comment associated only with a visit. In this case, COREF is used to show that the comment is related to the particular visit.\n\n**Row 8:** Shows a third option for representing a comment associated only with a visit. In this case, the VISITNUM variable was populated to indicate that the comment was associated with a particular visit.\n\n**co.xpt**\n\n| Row | STUDYID | DOMAIN | RDOMAIN | USUBJID | COSEQ | IDVAR | IDVARVAL | COREF | COVAL | COVAL1 | COVAL2 | COEVAL | VISITNUM | CODTC |\n|-----|---------|--------|---------|---------|-------|-------|----------|-------|-------|--------|--------|--------|----------|-------|\n| 1 | 1234 | CO | | AB-99 | 1 | | | | Comment text | | | PRINCIPAL INVESTIGATOR | | 2003-11-08 |\n| 2 | 1234 | CO | PE | AB-99 | 2 | | | VISIT 7 | Comment text | | | PRINCIPAL INVESTIGATOR | | 2004-01-14 |\n| 3 | 1234 | CO | AE | AB-99 | 3 | AESEQ | 7 | PAGE 650 | First 200 characters | Next 200 characters | Remaining text | PRINCIPAL INVESTIGATOR | | |\n| 4 | 1234 | CO | EX | AB-99 | 4 | EXGRPID | COMBO1 | PAGE 320-355 | First 200 characters | | Remaining text | PRINCIPAL INVESTIGATOR | | |\n| 5 | 1234 | CO | VS | AB-99 | 5 | VSGRPID | VS2 | | Comment text | | | PRINCIPAL INVESTIGATOR | | |\n| 6 | 1234 | CO | SV | AB-99 | 6 | VISITNUM | 4 | | Comment Text | | | PRINCIPAL INVESTIGATOR | | |\n| 7 | 1234 | CO | | AB-99 | 7 | | | VISIT 4 | Comment Text | | | PRINCIPAL INVESTIGATOR | | |\n| 8 | 1234 | CO | | AB-99 | 8 | | | | Comment Text | | | PRINCIPAL INVESTIGATOR | 4 | |\n",
    "off_answer": "The rules governing the two-character DOMAIN code are defined in the SDTMIG General Assumptions.\n\nThe **2-character domain code** is used as a prefix for most variable names within a domain to minimize difficulties when merging datasets. The specific character restrictions are as follows:\n\n- **First character**: Limited to **A-Z** (uppercase letters only).\n- **Second character**: Limited to **A-Z** (uppercase letters) or **0-9** (digits).\n- **No other characters** (e.g., underscores, hyphens) are allowed.\n\nThis restriction exists for compatibility with **SAS v5 transport files** and the file n",
    "on_v2_answer": "Based on the SDTMIG v3.4 General Assumptions, the rules for the two-character DOMAIN code are as follows:\n\n**Character Restrictions:**\n\n- **First character:** Limited to **A–Z** (uppercase letters only).\n- **Second character:** Limited to **A–Z** (uppercase letters) and **0–9** (digits).\n- **No other characters are allowed** (e.g., no underscores, hyphens, or lowercase letters).\n\n**Purpose and Rationale:**\nThis restriction ensures compatibility with **SAS V5 transport files** and with **file naming requirements** as part of the **Electronic Common Technical Document (eCTD)**. The DOMAIN code serves as the dataset name, the value of the `DOMAIN` variable within that dataset, and as a prefix for most variable names in the dataset (with defined exceptions such as `STUDYID`, `USUBJID`, and variables in Demographics, RELREC, SUPPQUAL, Comments, and Trial Design datasets).\n\n**[Source: chapters/ch04_general_assumptions.md — §4.2.2 Two-character Domain Identifier]**"
  },
  {
    "id": "q93",
    "category": "mixed",
    "question": "In the EX domain, what is the EXDOSFRM (Dose Form) variable and its controlled terminology codelist code, and give some dose-form values from that codelist (for example a solid oral shell form or a sterile parenteral form)?",
    "expected_facts": [
      "EXDOSFRM",
      "C66726",
      "CAPSULE",
      "INJECTION"
    ],
    "on_v2_fact_misses": [
      "INJECTION"
    ],
    "retrieved_context": "### [1] domains/EX/spec.md -- EXDOSFRM  (similarity: 0.783)\n\n### EXDOSFRM\n- **Order:** 16\n- **Label:** Dose Form\n- **Type:** Char\n- **Controlled Terms:** C66726\n- **Role:** Variable Qualifier\n- **Core:** Exp\n- **CDISC Notes:** Dose form for EXTRT. Examples: \"TABLET\", \"LOTION\".\n\n\n\n---\n\n### [2] terminology/core/interventions.md -- Pharmaceutical Dosage Form  (similarity: 0.420)\n\n## Pharmaceutical Dosage Form (C66726)\n\nExtensible: Yes\n\n| Code | CDISC Submission Value | CDISC Synonym(s) | CDISC Definition |\n|------|----------------------|-------------------|------------------|\n| C42887 | AEROSOL | aer | A product that is packaged under pressure and contains therapeutically active ingredients that are released upon activation of an appropriate valve system; it is intended for topical application to the skin as well as local application into the nose (nasal aerosols), mouth (lingual aerosols), or lungs (inhalation aerosols). |\n| C42888 | AEROSOL, FOAM |  | A dosage form containing one or more active ingredients, surfactants, aqueous or non-aqueous liquids, and the propellants; if the propellant is in the internal (discontinuous) phase (i.e., of the oil-in-water type), a stable foam is discharged, and if the propellant is in the external (continuous) phase (i.e., of the water-in-oil type), a spray or a quick-breaking foam is discharged. |\n| C42960 | AEROSOL, METERED |  | A pressurized dosage form consisting of metered dose valves which allow for the delivery of a uniform quantity of spray upon each activation. (NCI) |\n| C42971 | AEROSOL, POWDER |  | A product that is packaged under pressure and contains therapeutically active ingredients, in the form of a powder, that are released upon activation of an appropriate valve system. (NCI) |\n| C42889 | AEROSOL, SPRAY |  | An aerosol product which utilizes a compressed gas as the propellant to provide the force necessary to expel the product as a wet spray; it is applicable to solutions of medicinal agents in aqueous solvents. (NCI) |\n| C42892 | BAR, CHEWABLE |  | A solid dosage form usually in the form of a rectangle that is meant to be chewed. (NCI) |\n| C42890 | BEAD |  | A solid dosage form in the shape of a small ball. (NCI) |\n| C43451 | BEAD, IMPLANT, EXTENDED RELEASE |  | A small sterile solid mass consisting of a highly purified drug intended for implantation in the body which would allow at least a reduction in dosing frequency as compared to that drug presented as a conventional dosage form. (NCI) |\n| C42891 | BLOCK |  | Solid dosage form, usually in the shape of a square or rectangle. (NCI) |\n| C97197 | CAPLET |  | A solid dosage form in which a tablet has been compacted into capsule shape. |\n| C25158 | CAPSULE | cap | A solid pharmaceutical dosage form that contains medicinal agent within either a hard or soft soluble container or shell, usually used for the oral administration of medicine. The shells are made of a suitable form of gelatin or other substance. (NCI) |\n| C42896 | CAPSULE, COATED PELLETS |  | A solid dosage form in which the drug is enclosed within either a hard or soft soluble container or 'shell' made from a suitable form of gelatin; the drug itself is in the form of granules to which varying amounts of coating have been applied. (NCI) |\n| C42895 | CAPSULE, COATED |  | A solid dosage form in which the drug is enclosed within either a hard or soft soluble container or \"shell\" made from a suitable form of gelatin; additionally, the capsule is covered in a designated coating. |\n| C42917 | CAPSULE, COATED, EXTENDED RELEASE |  | A solid dosage form in which the drug is enclosed within either a hard or soft soluble container or \"shell\" made from a suitable form of gelatin; additionally, the capsule is covered in a designated coating, and which releases a drug (or drugs) in such a manner to allow at least a reduction in dosing frequency as compared to that drug (or drugs) presented as a conventional dosage form. |\n| C42904 | CAPSULE, DELAYED RELEASE PELLETS |  | A solid dosage form in which the drug is enclosed within either a hard or soft soluble container or \"shell\" made from a suitable form of gelatin; the drug itself is in the form of granules to which enteric coating has been applied, thus delaying release of the drug until its passage into the intestines. |\n| C42902 | CAPSULE, DELAYED RELEASE |  | A solid dosage form in which the drug is\n...(truncated)\n\n---\n\n### [3] domains/EC/spec.md -- ECDOSFRM  (similarity: 0.714)\n\n### ECDOSFRM\n- **Order:** 20\n- **Label:** Dose Form\n- **Type:** Char\n- **Controlled Terms:** C66726\n- **Role:** Variable Qualifier\n- **Core:** Exp\n- **CDISC Notes:** Dose form for ECTRT. Examples: \"TABLET\", \"LOTION\".\n\n\n\n---\n\n### [4] domains/CM/spec.md -- CMDOSFRM  (similarity: 0.684)\n\n### CMDOSFRM\n- **Order:** 22\n- **Label:** Dose Form\n- **Type:** Char\n- **Controlled Terms:** C66726\n- **Role:** Variable Qualifier\n- **Core:** Perm\n- **CDISC Notes:** Dose form for CMTRT. Examples: \"TABLET\", \"LOTION\".\n\n\n\n---\n\n### [5] domains/ML/spec.md -- MLDOSFRM  (similarity: 0.629)\n\n### MLDOSFRM\n- **Order:** 17\n- **Label:** Dose Form\n- **Type:** Char\n- **Controlled Terms:** C66726\n- **Role:** Variable Qualifier\n- **Core:** Perm\n- **CDISC Notes:** Dosage form for MLTRT. Example: \"BAR, CHEWABLE\".\n\n\n\n---\n\n### [6] domains/PR/spec.md -- PRDOSFRM  (similarity: 0.628)\n\n### PRDOSFRM\n- **Order:** 19\n- **Label:** Dose Form\n- **Type:** Char\n- **Controlled Terms:** C66726\n- **Role:** Variable Qualifier\n- **Core:** Perm\n- **CDISC Notes:** Dose form for PRTRT.\n\n\n\n---\n\n### [7] domains/EX/spec.md -- Controlled Terminology  (similarity: 0.715)\n\n### Controlled Terminology\n- [Pharmaceutical Dosage Form (C66726)](../../terminology/core/interventions.md) — EXDOSFRM\n- [Route of Administration Response (C66729)](../../terminology/core/interventions.md) — EXROUTE\n- [No Yes Response (C66742)](../../terminology/core/general_part4.md) — EXFAST\n- [Frequency (C71113)](../../terminology/core/interventions.md) — EXDOSFRQ\n- [Unit (C71620)](../../terminology/core/general_part5.md) — EXDOSU\n- [Anatomical Location (C74456)](../../terminology/core/general_part1.md) — EXLOC\n- [Laterality (C99073)](../../terminology/core/general_part2.md) — EXLAT\n- [Directionality (C99074)](../../terminology/core/general_part2.md) — EXDIR\n- [Epoch (C99079)](../../terminology/core/general_part2.md) — EPOCH\n\n\n\n---\n\n### [8] domains/AG/spec.md -- AGDOSFRM  (similarity: 0.629)\n\n### AGDOSFRM\n- **Order:** 23\n- **Label:** Dose Form\n- **Type:** Char\n- **Controlled Terms:** C66726\n- **Role:** Variable Qualifier\n- **Core:** Perm\n- **CDISC Notes:** Dose form for AGTRT. Examples: \"TABLET\", \"AEROSOL\".\n\n\n\n---\n\n### [9] domains/SU/spec.md -- SUDOSFRM  (similarity: 0.610)\n\n### SUDOSFRM\n- **Order:** 21\n- **Label:** Dose Form\n- **Type:** Char\n- **Controlled Terms:** C66726\n- **Role:** Variable Qualifier\n- **Core:** Perm\n- **CDISC Notes:** Dose form for SUTRT. Examples: \"INJECTABLE\", \"LIQUID\", \"POWDER\".\n\n\n\n---\n\n### [10] domains/TS/assumptions.md -- item_11  (similarity: 20.333)\n\n11. Some codelists used for TSVAL include terms which are also null flavors. For example, the Pharmaceutical Dosage Form codelist includes the values \"UNKNOWN\" and \"NOT APPLICABLE\". In such cases, TSVAL should have the term from the codelist and TSVALNF should be null.\n\n---\n\n### [11] domains/EX/spec.md -- EXDOSU  (similarity: 0.706)\n\n### EXDOSU\n- **Order:** 15\n- **Label:** Dose Units\n- **Type:** Char\n- **Controlled Terms:** C71620\n- **Role:** Variable Qualifier\n- **Core:** Exp\n- **CDISC Notes:** Units for EXDOSE, EXDOSTOT, or EXDOSTXT representing protocol-specified values. Examples: \"ng\", \"mg\", \"mg/kg\", \"mg/m2\".\n\n\n\n---\n\n### [12] domains/IS/assumptions.md -- item_7  (similarity: 19.157)\n\n7. The IS domain variable ISBDAGNT (Binding Agent) is currently supported by 2 Controlled Terminology codelists: Microorganism (MICROORG) and Binding Agent for Immunogenicity Tests (ISBDAGT). Controlled Terminology Rules for Immunogenicity Tests describes how and when to use each codelist (see https://www.cdisc.org/standards/terminology/controlled-terminology).\n   a. For antidrug antibody (ADA) tests, the ISBDAGNT variable is used to represent the free-text description of the name/identity of the therapy the antidrug antibody targets. CDISC does not control study therapy names (e.g., drugs, biologics). For ADA tests as a part of regulatory agency submissions, the proprietary binding study therapy name(s) should be considered as extended values of the ISBDAGT codelist when represented in Define-XML.\n   b. For mixed-allergens panel tests, submission values represented in the ISBDAGNT variable should follow this format: \"XXX, Multiple\" (e.g., Dairy Mix Antigens, Multiple; Animal Mix Antigens, Multiple; use the plural form for the word \"antigen\" if needed). Should the sponsor wish to specify the individual antigens in a mixed antigen panel (e.g., ISBDAGNT = \"Animal Mix Antigens, Multiple\"), put the names of the specific antigens in Suppqual (e.g., Cat, Dog, Cow, Horse; see example 11).\n\n---\n\n### [13] domains/EX/spec.md -- EXDOSFRQ  (similarity: 0.694)\n\n### EXDOSFRQ\n- **Order:** 17\n- **Label:** Dosing Frequency per Interval\n- **Type:** Char\n- **Controlled Terms:** C71113\n- **Role:** Record Qualifier\n- **Core:** Perm\n- **CDISC Notes:** Usually expressed as the number of repeated administrations of EXDOSE within a specific time period. Examples: \"Q2H\", \"QD\", \"BID\".\n\n\n\n---\n\n### [14] domains/EX/examples.md -- Example 8  (similarity: 17.520)\n\n## Example 8\n\nIn this example, a 100 mg tablet is scheduled to be taken daily. Start and end of dosing were collected, along with deviations from the planned daily dosing. Note: This method of data collection design is not consistent with current CDASH standards.\n\n**CRF:**\n\n| First Dose Date | Last Dose Date |\n|-----------------|----------------|\n| 2012-01-13 | 2012-01-20 |\n\n| Date | Number of Doses Daily If/When Deviated from Plan |\n|------|--------------------------------------------------|\n| 2012-01-15 | 0 |\n| 2012-01-16 | 2 |\n\nThe EC dataset shows administrations as collected.\n\n**Row 1:** Shows the overall dosing interval from first dose date to last dose date.\n\n**Row 2:** Shows the missed dose on 2012-01-15, which falls within the overall dosing interval.\n\n**Row 3:** Shows a doubled dose on 2012-01-16, which also falls within the overall dosing interval.\n\n**ec.xpt**\n\n| Row | STUDYID | DOMAIN | USUBJID | ECSEQ | ECTRT | ECCAT | ECPRESP | ECOCCUR | ECDOSE | ECDOSU | ECDOSFRQ | EPOCH | ECSTDTC | ECENDTC | ECSTDY | ECENDY |\n|-----|---------|--------|---------|-