{
  "summary": {
    "n_questions": 102,
    "model": "deepseek/deepseek-chat",
    "threshold": 0.85,
    "source_recall_avg": 0.9902,
    "source_recall_by_category": {
      "concept": 1.0,
      "cross_domain": 0.96,
      "mixed": 1.0,
      "single_domain": 1.0
    },
    "fact_recall_avg": 0.9551,
    "fact_recall_by_category": {
      "concept": 1.0,
      "cross_domain": 0.9233,
      "mixed": 0.94,
      "single_domain": 0.9568
    },
    "overall": 0.9726,
    "total_tokens": 1523626,
    "verdict": "PASS",
    "top_k": 15,
    "structured_lookup": true,
    "hybrid": {
      "fusion": "rrf",
      "alpha": null
    }
  },
  "results": [
    {
      "id": "q01",
      "category": "single_domain",
      "question": "What is AETERM and what are its variable attributes in the AE domain?",
      "source_recall": 1.0,
      "source_hits": [
        "domains/AE/spec.md"
      ],
      "source_misses": [],
      "top5_sources": [
        "domains/AE/spec.md",
        "domains/AE/assumptions.md",
        "domains/AE/examples.md",
        "domains/FA/examples.md",
        "domains/AE/assumptions.md"
      ],
      "top5_similarities": [
        0.5884,
        0.6641,
        0.5284,
        0.494,
        0.6105
      ],
      "fact_recall": 1.0,
      "fact_hits": [
        "Topic",
        "Char",
        "Req",
        "Verbatim"
      ],
      "fact_misses": [],
      "answer_preview": "## AETERM — Reported Term for the Adverse Event\n\nBased on the SDTMIG v3.4 specifications:\n\n### Variable Attributes\n\n| Attribute | Value |\n|-----------|-------|\n| **Order** | 9 |\n| **Label** | Reported Term for the Adverse Event |\n| **Type** | Char |\n| **Controlled Terms** | (none — free text) |\n| **",
      "usage": {
        "prompt_tokens": 14037,
        "completion_tokens": 511,
        "total_tokens": 14548
      },
      "model": "deepseek/deepseek-chat",
      "elapsed_s": 5.03
    },
    {
      "id": "q02",
      "category": "single_domain",
      "question": "What are the required (Core=Req) variables in the DM domain?",
      "source_recall": 1.0,
      "source_hits": [
        "domains/DM/spec.md"
      ],
      "source_misses": [],
      "top5_sources": [
        "domains/DM/spec.md",
        "chapters/ch04_general_assumptions.md",
        "chapters/ch04_general_assumptions.md",
        "domains/DM/assumptions.md",
        "model/01_concepts_and_terms.md"
      ],
      "top5_similarities": [
        0.4813,
        0.5064,
        0.5671,
        0.6081,
        0.5049
      ],
      "fact_recall": 0.3333,
      "fact_hits": [
        "STUDYID",
        "USUBJID"
      ],
      "fact_misses": [
        "RFSTDTC",
        "AGE",
        "SEX",
        "ARM"
      ],
      "answer_preview": "Based on the retrieved context, the required (Core=Req) variables in the DM (Demographics) domain are not fully enumerated in a single list. However, from the spec file for DM, we can confirm one required variable:\n\n**DOMAIN**\n- **Label:** Domain Abbreviation\n- **Type:** Char\n- **Role:** Identifier\n",
      "usage": {
        "prompt_tokens": 14324,
        "completion_tokens": 387,
        "total_tokens": 14711
      },
      "model": "deepseek/deepseek-chat",
      "elapsed_s": 3.95
    },
    {
      "id": "q03",
      "category": "single_domain",
      "question": "What are the key assumptions for adverse event data collection and coding?",
      "source_recall": 1.0,
      "source_hits": [
        "domains/AE/assumptions.md"
      ],
      "source_misses": [],
      "top5_sources": [
        "domains/AE/assumptions.md",
        "domains/FA/examples.md",
        "domains/AE/assumptions.md",
        "domains/AE/assumptions.md",
        "domains/AE/assumptions.md"
      ],
      "top5_similarities": [
        0.5919,
        0.5041,
        0.5608,
        0.5755,
        0.5716
      ],
      "fact_recall": 1.0,
      "fact_hits": [
        "AETERM",
        "MedDRA",
        "AEDECOD"
      ],
      "fact_misses": [],
      "answer_preview": "# Key Assumptions for Adverse Event Data Collection and Coding\n\nBased on the SDTMIG v3.4, here are the key assumptions for the Adverse Events (AE) domain:\n\n## 1. Scope and Definition of Adverse Events\n\n- The AE dataset includes \"any untoward medical occurrence in a patient or clinical investigation ",
      "usage": {
        "prompt_tokens": 15979,
        "completion_tokens": 1241,
        "total_tokens": 17220
      },
      "model": "deepseek/deepseek-chat",
      "elapsed_s": 9.86
    },
    {
      "id": "q04",
      "category": "single_domain",
      "question": "What is the purpose of the TV (Trial Visits) domain and what variables does it contain?",
      "source_recall": 1.0,
      "source_hits": [
        "domains/TV/spec.md"
      ],
      "source_misses": [],
      "top5_sources": [
        "domains/TV/spec.md",
        "domains/SV/assumptions.md",
        "domains/TV/assumptions.md",
        "domains/TV/examples.md",
        "domains/TV/assumptions.md"
      ],
      "top5_similarities": [
        0.5894,
        0.6873,
        0.6384,
        0.6648,
        0.6176
      ],
      "fact_recall": 1.0,
      "fact_hits": [
        "VISITNUM",
        "VISIT"
      ],
      "fact_misses": [],
      "answer_preview": "## Purpose of the TV (Trial Visits) Domain\n\nThe TV domain is part of the Trial Design Model and describes **the protocol-defined planned schedule of subject encounters at the healthcare facility where the study is being conducted**. It provides the planned scheduling of assessments to which a subjec",
      "usage": {
        "prompt_tokens": 14973,
        "completion_tokens": 508,
        "total_tokens": 15481
      },
      "model": "deepseek/deepseek-chat",
      "elapsed_s": 4.99
    },
    {
      "id": "q05",
      "category": "single_domain",
      "question": "In the PE (Physical Examination) domain, what is the structure of the dataset, what is the role of the PETESTCD variable, and what value should PETESTCD have when the results of the entire physical examination are represented in one record?",
      "source_recall": 1.0,
      "source_hits": [
        "domains/PE/spec.md"
      ],
      "source_misses": [],
      "top5_sources": [
        "domains/PE/spec.md",
        "domains/PE/spec.md",
        "VARIABLE_INDEX.md",
        "domains/PE/assumptions.md",
        "domains/PE/examples.md"
      ],
      "top5_similarities": [
        0.731,
        0.7026,
        0.6909,
        0.6232,
        0.6542
      ],
      "fact_recall": 1.0,
      "fact_hits": [
        "PETESTCD",
        "Topic",
        "PHYSEXAM"
      ],
      "fact_misses": [],
      "answer_preview": "Based on the retrieved context, here is the detailed breakdown of the PE (Physical Examination) domain structure, the role of PETESTCD, and the value for a single summary record.\n\n### Dataset Structure\n\nThe PE dataset is a Findings domain. The structure can be either:\n\n1.  **Vertical (Multiple recor",
      "usage": {
        "prompt_tokens": 16457,
        "completion_tokens": 411,
        "total_tokens": 16868
      },
      "model": "deepseek/deepseek-chat",
      "elapsed_s": 4.12
    },
    {
      "id": "q21",
      "category": "single_domain",
      "question": "What is the LBTESTCD variable in the LB (Laboratory Test Results) domain? Describe its role, controlled terminology codelist code, and naming constraints.",
      "source_recall": 1.0,
      "source_hits": [
        "domains/LB/spec.md"
      ],
      "source_misses": [],
      "top5_sources": [
        "domains/LB/spec.md",
        "terminology/core/lb_part2.md",
        "domains/LB/spec.md",
        "domains/LB/assumptions.md",
        "domains/LB/examples.md"
      ],
      "top5_similarities": [
        0.7837,
        0.5222,
        0.7118,
        0.7499,
        0.6639
      ],
      "fact_recall": 1.0,
      "fact_hits": [
        "Topic",
        "C65047",
        "8 characters"
      ],
      "fact_misses": [],
      "answer_preview": "## LBTESTCD in the LB (Laboratory Test Results) Domain\n\n### Variable Definition\n\n| Attribute | Value |\n|-----------|-------|\n| **Order** | 8 |\n| **Label** | Lab Test or Examination Short Name |\n| **Type** | Char |\n| **Controlled Terms** | C65047 |\n| **Role** | Topic |\n| **Core** | Required |\n\n**[Sou",
      "usage": {
        "prompt_tokens": 15443,
        "completion_tokens": 606,
        "total_tokens": 16049
      },
      "model": "deepseek/deepseek-chat",
      "elapsed_s": 5.83
    },
    {
      "id": "q22",
      "category": "single_domain",
      "question": "What is the VS (Vital Signs) domain and what are some examples of VSTESTCD values? Include the codelist code.",
      "source_recall": 1.0,
      "source_hits": [
        "domains/VS/spec.md"
      ],
      "source_misses": [],
      "top5_sources": [
        "domains/VS/spec.md",
        "terminology/core/vs.md",
        "domains/VS/spec.md",
        "VARIABLE_INDEX.md",
        "domains/VS/assumptions.md"
      ],
      "top5_similarities": [
        0.7384,
        0.5465,
        0.6467,
        0.6305,
        0.6914
      ],
      "fact_recall": 1.0,
      "fact_hits": [
        "Findings",
        "VSTESTCD",
        "C66741"
      ],
      "fact_misses": [],
      "answer_preview": "## VS (Vital Signs) Domain Overview\n\nThe **VS (Vital Signs)** domain is a **Findings** class domain used to represent collected vital signs measurements such as blood pressure, heart rate, temperature, and respiratory rate. Each record in VS represents a single vital sign test result for a subject a",
      "usage": {
        "prompt_tokens": 13722,
        "completion_tokens": 975,
        "total_tokens": 14697
      },
      "model": "deepseek/deepseek-chat",
      "elapsed_s": 8.79
    },
    {
      "id": "q23",
      "category": "single_domain",
      "question": "In the CM (Concomitant Medications) domain, what is the CMTRT variable and what observation class does CM belong to?",
      "source_recall": 1.0,
      "source_hits": [
        "domains/CM/spec.md"
      ],
      "source_misses": [],
      "top5_sources": [
        "domains/CM/spec.md",
        "domains/CM/assumptions.md",
        "domains/CM/assumptions.md",
        "VARIABLE_INDEX.md",
        "domains/CM/assumptions.md"
      ],
      "top5_similarities": [
        0.6736,
        0.6595,
        0.6281,
        0.5988,
        0.5731
      ],
      "fact_recall": 1.0,
      "fact_hits": [
        "CMTRT",
        "Interventions",
        "Topic",
        "Req"
      ],
      "fact_misses": [],
      "answer_preview": "Based on the provided context:\n\n**CMTRT (Reported Name of Drug, Med, or Therapy)** is the Topic variable for the CM domain. It is a **Required** character variable that captures the verbatim name of the concomitant medication/therapy as collected on the CRF. The variable must only contain the medica",
      "usage": {
        "prompt_tokens": 14133,
        "completion_tokens": 183,
        "total_tokens": 14316
      },
      "model": "deepseek/deepseek-chat",
      "elapsed_s": 2.72
    },
    {
      "id": "q24",
      "category": "single_domain",
      "question": "What is the EX (Exposure) domain used for and what is the Topic variable EXTRT?",
      "source_recall": 1.0,
      "source_hits": [
        "domains/EX/spec.md"
      ],
      "source_misses": [],
      "top5_sources": [
        "domains/EX/spec.md",
        "domains/EX/assumptions.md",
        "domains/EX/assumptions.md",
        "domains/EX/assumptions.md",
        "domains/EX/assumptions.md"
      ],
      "top5_similarities": [
        0.5483,
        0.6559,
        0.6116,
        0.5522,
        0.6203
      ],
      "fact_recall": 1.0,
      "fact_hits": [
        "EXTRT",
        "Interventions",
        "protocol-specified"
      ],
      "fact_misses": [],
      "answer_preview": "Based on the retrieved context, I can answer your questions about the EX (Exposure) domain and its topic variable EXTRT.\n\n### What is the EX (Exposure) domain used for?\n\nThe EX domain is an Interventions domain used to represent **protocol-specified study treatment exposure**. It is a **derived data",
      "usage": {
        "prompt_tokens": 15956,
        "completion_tokens": 796,
        "total_tokens": 16752
      },
      "model": "deepseek/deepseek-chat",
      "elapsed_s": 7.0
    },
    {
      "id": "q25",
      "category": "single_domain",
      "question": "In the MH (Medical History) domain, what is the role of MHTERM and what assumptions guide medical history data collection?",
      "source_recall": 1.0,
      "source_hits": [
        "domains/MH/assumptions.md"
      ],
      "source_misses": [],
      "top5_sources": [
        "domains/MH/spec.md",
        "domains/MH/assumptions.md",
        "VARIABLE_INDEX.md",
        "domains/MH/assumptions.md",
        "domains/MH/examples.md"
      ],
      "top5_similarities": [
        0.6764,
        0.7369,
        0.6858,
        0.6768,
        0.6213
      ],
      "fact_recall": 1.0,
      "fact_hits": [
        "MHTERM",
        "Topic",
        "Verbatim"
      ],
      "fact_misses": [],
      "answer_preview": "## MHTERM Role and Medical History Data Collection Assumptions\n\n### MHTERM — Role and Definition\n\n**MHTERM** is the **Topic** variable for the MH domain. It is a **Required** character field with the label *Reported Term for the Medical History*.\n\n- **Variable Definition:**\n  - **Label:** Reported T",
      "usage": {
        "prompt_tokens": 14014,
        "completion_tokens": 1025,
        "total_tokens": 15039
      },
      "model": "deepseek/deepseek-chat",
      "elapsed_s": 8.47
    },
    {
      "id": "q26",
      "category": "single_domain",
      "question": "Describe the EG (ECG Test Results) domain structure and the EGTESTCD variable, including its controlled terminology codelist codes.",
      "source_recall": 1.0,
      "source_hits": [
        "domains/EG/spec.md"
      ],
      "source_misses": [],
      "top5_sources": [
        "domains/EG/spec.md",
        "terminology/core/eg_part3.md",
        "terminology/core/eg_part2.md",
        "domains/EG/spec.md",
        "VARIABLE_INDEX.md"
      ],
      "top5_similarities": [
        0.7263,
        0.5879,
        0.5242,
        0.7253,
        0.6737
      ],
      "fact_recall": 1.0,
      "fact_hits": [
        "EGTESTCD",
        "Findings",
        "C71153"
      ],
      "fact_misses": [],
      "answer_preview": "# EG (ECG Test Results) Domain Structure and EGTESTCD Variable\n\n## Domain Overview\n\nThe EG domain captures ECG test results, measurements, and interpretations collected during a clinical study. It belongs to the **Findings** observation class. **[Source: VARIABLE_INDEX.md — EG]**\n\n## Domain Structur",
      "usage": {
        "prompt_tokens": 15940,
        "completion_tokens": 1450,
        "total_tokens": 17390
      },
      "model": "deepseek/deepseek-chat",
      "elapsed_s": 10.23
    },
    {
      "id": "q27",
      "category": "single_domain",
      "question": "What is the IE (Inclusion/Exclusion) domain and what is the role and maximum length of the IETEST variable?",
      "source_recall": 1.0,
      "source_hits": [
        "domains/IE/spec.md"
      ],
      "source_misses": [],
      "top5_sources": [
        "domains/IE/spec.md",
        "domains/TI/spec.md",
        "domains/TI/assumptions.md",
        "domains/IE/assumptions.md",
        "domains/IE/assumptions.md"
      ],
      "top5_similarities": [
        0.6769,
        0.7161,
        0.6678,
        0.6364,
        0.6552
      ],
      "fact_recall": 1.0,
      "fact_hits": [
        "IETEST",
        "200",
        "Synonym Qualifier"
      ],
      "fact_misses": [],
      "answer_preview": "Based on the retrieved context, the IE (Inclusion/Exclusion Criteria Not Met) domain is a **Findings** class domain used to collect responses only for those inclusion/exclusion criteria that a subject **did not meet**, rather than responses to all criteria. For the complete list of all criteria, the",
      "usage": {
        "prompt_tokens": 9394,
        "completion_tokens": 219,
        "total_tokens": 9613
      },
      "model": "deepseek/deepseek-chat",
      "elapsed_s": 2.29
    },
    {
      "id": "q06",
      "category": "cross_domain",
      "question": "What is SUPPQUAL and when should supplemental qualifiers be used instead of adding variables to a domain?",
      "source_recall": 1.0,
      "source_hits": [
        "domains/SUPPQUAL/spec.md"
      ],
      "source_misses": [],
      "top5_sources": [
        "domains/SUPPQUAL/spec.md",
        "domains/SUPPQUAL/assumptions.md",
        "chapters/ch08_relationships.md",
        "chapters/ch08_relationships.md",
        "chapters/ch08_relationships.md"
      ],
      "top5_similarities": [
        0.5533,
        0.7409,
        0.7302,
        0.6569,
        0.5621
      ],
      "fact_recall": 1.0,
      "fact_hits": [
        "QNAM",
        "QVAL",
        "non-standard"
      ],
      "fact_misses": [],
      "answer_preview": "# SUPPQUAL — Supplemental Qualifiers\n\n## Definition\n\n**SUPPQUAL** (Supplemental Qualifiers for [domain name]) is a special-purpose relationship dataset model used to capture **non-standard variables (NSVs)** — i.e., variables that are not part of the standard SDTM domain model. **[Source: domains/SU",
      "usage": {
        "prompt_tokens": 16401,
        "completion_tokens": 1178,
        "total_tokens": 17579
      },
      "model": "deepseek/deepseek-chat",
      "elapsed_s": 9.0
    },
    {
      "id": "q07",
      "category": "cross_domain",
      "question": "Which SDTM domains use the EPOCH variable and what is its purpose?",
      "source_recall": 1.0,
      "source_hits": [
        "VARIABLE_INDEX.md"
      ],
      "source_misses": [],
      "top5_sources": [
        "VARIABLE_INDEX.md",
        "chapters/ch04_general_assumptions.md",
        "model/01_concepts_and_terms.md",
        "domains/SR/spec.md",
        "chapters/ch02_fundamentals.md"
      ],
      "top5_similarities": [
        0.5124,
        0.7004,
        11.8134,
        0.6837,
        11.0386
      ],
      "fact_recall": 1.0,
      "fact_hits": [
        "EPOCH",
        "Timing"
      ],
      "fact_misses": [],
      "answer_preview": "Based on the knowledge base, the EPOCH variable is used across multiple SDTM domains, primarily in the **Events**, **Interventions**, and **Findings** general observation classes, and also in **special-purpose domains**.\n\n### Purpose of EPOCH\nEPOCH describes the **study design interval** (e.g., \"SCR",
      "usage": {
        "prompt_tokens": 14154,
        "completion_tokens": 815,
        "total_tokens": 14969
      },
      "model": "deepseek/deepseek-chat",
      "elapsed_s": 6.77
    },
    {
      "id": "q08",
      "category": "cross_domain",
      "question": "How does USUBJID serve as a linking key across SDTM domains?",
      "source_recall": 1.0,
      "source_hits": [
        "domains/DM/spec.md"
      ],
      "source_misses": [],
      "top5_sources": [
        "VARIABLE_INDEX.md",
        "domains/SUPPQUAL/spec.md",
        "chapters/ch04_general_assumptions.md",
        "domains/DM/spec.md",
        "chapters/ch03_submitting_data.md"
      ],
      "top5_similarities": [
        0.4878,
        0.7075,
        10.4468,
        0.6923,
        9.9812
      ],
      "fact_recall": 1.0,
      "fact_hits": [
        "USUBJID",
        "Identifier",
        "unique"
      ],
      "fact_misses": [],
      "answer_preview": "Based on the provided context, USUBJID serves as a fundamental linking key across SDTM domains, primarily acting as a unique identifier for subjects that can be used to associate records in relationship datasets and supplemental qualifiers, and is the standard identifier used across all subject-leve",
      "usage": {
        "prompt_tokens": 13649,
        "completion_tokens": 703,
        "total_tokens": 14352
      },
      "model": "deepseek/deepseek-chat",
      "elapsed_s": 7.26
    },
    {
      "id": "q09",
      "category": "cross_domain",
      "question": "How are adverse events linked to concomitant medications using RELREC?",
      "source_recall": 1.0,
      "source_hits": [
        "domains/RELREC/spec.md"
      ],
      "source_misses": [],
      "top5_sources": [
        "domains/RELREC/spec.md",
        "domains/AE/spec.md",
        "chapters/ch08_relationships.md",
        "domains/RELREC/examples.md",
        "domains/RELREC/assumptions.md"
      ],
      "top5_similarities": [
        0.4612,
        0.5185,
        0.6173,
        0.583,
        0.5376
      ],
      "fact_recall": 1.0,
      "fact_hits": [
        "RELREC",
        "IDVAR",
        "IDVARVAL"
      ],
      "fact_misses": [],
      "answer_preview": "## Linking Adverse Events to Concomitant Medications via RELREC\n\nAdverse events (AE) are linked to concomitant medications (CM) using the **RELREC (Related Records)** special-purpose dataset when a non-study treatment was given because of the occurrence of an adverse event. This is explicitly stated",
      "usage": {
        "prompt_tokens": 16000,
        "completion_tokens": 946,
        "total_tokens": 16946
      },
      "model": "deepseek/deepseek-chat",
      "elapsed_s": 7.49
    },
    {
      "id": "q10",
      "category": "cross_domain",
      "question": "In oncology studies, how are the TR (Tumor/Lesion Results) domain and RS (Disease Response) domain linked together, and which specific identifier variables are used for each linkage direction?",
      "source_recall": 1.0,
      "source_hits": [
        "domains/TR/assumptions.md",
        "domains/TR/spec.md"
      ],
      "source_misses": [],
      "top5_sources": [
        "domains/TR/spec.md",
        "domains/RS/spec.md",
        "domains/RS/assumptions.md",
        "domains/TR/assumptions.md",
        "domains/TR/assumptions.md"
      ],
      "top5_similarities": [
        0.6207,
        0.6214,
        0.713,
        0.7055,
        0.6926
      ],
      "fact_recall": 1.0,
      "fact_hits": [
        "TRLNKID",
        "TRLNKGRP"
      ],
      "fact_misses": [],
      "answer_preview": "## TR–RS Linkage in Oncology Studies\n\nThe TR (Tumor/Lesion Results) and RS (Disease Response) domains are linked using **RELREC** records with specific linking group variables in each domain. The linkage is a **dataset-to-dataset** relationship.\n\n### Linkage Mechanism\n\n1. **TR → RS direction**: The ",
      "usage": {
        "prompt_tokens": 14741,
        "completion_tokens": 731,
        "total_tokens": 15472
      },
      "model": "deepseek/deepseek-chat",
      "elapsed_s": 7.17
    },
    {
      "id": "q28",
      "category": "cross_domain",
      "question": "What is the FA (Findings About Events or Interventions) domain and how does it link to parent domains like AE or CM using FAOBJ?",
      "source_recall": 1.0,
      "source_hits": [
        "domains/FA/spec.md"
      ],
      "source_misses": [],
      "top5_sources": [
        "VARIABLE_INDEX.md",
        "domains/FA/spec.md",
        "domains/AE/spec.md",
        "domains/CM/spec.md",
        "domains/FA/assumptions.md"
      ],
      "top5_similarities": [
        0.5985,
        0.5917,
        0.6388,
        0.4692,
        0.6937
      ],
      "fact_recall": 1.0,
      "fact_hits": [
        "Findings About",
        "FAOBJ",
        "FATESTCD"
      ],
      "fact_misses": [],
      "answer_preview": "Based on the provided context, the FA (Findings About Events or Interventions) domain is a subtype of the Findings Observation Class used to represent findings about observations recorded in the Interventions or Events domains **[Source: model/02_observation_classes.md]**.\n\nHere's a detailed breakdo",
      "usage": {
        "prompt_tokens": 16370,
        "completion_tokens": 1079,
        "total_tokens": 17449
      },
      "model": "deepseek/deepseek-chat",
      "elapsed_s": 9.87
    },
    {
      "id": "q29",
      "category": "cross_domain",
      "question": "How do the four Trial Design domains TA (Trial Arms), TE (Trial Elements), TV (Trial Visits), and TI (Trial Inclusion/Exclusion) work together to define a study design?",
      "source_recall": 1.0,
      "source_hits": [
        "domains/TA/assumptions.md",
        "domains/TE/assumptions.md"
      ],
      "source_misses": [],
      "top5_sources": [
        "domains/TA/spec.md",
        "domains/TE/spec.md",
        "domains/TV/spec.md",
        "domains/TE/assumptions.md",
        "domains/TA/assumptions.md"
      ],
      "top5_similarities": [
        0.7568,
        0.7352,
        0.7534,
        0.7359,
        0.7245
      ],
      "fact_recall": 1.0,
      "fact_hits": [
        "TA",
        "TE",
        "TV",
        "TI"
      ],
      "fact_misses": [],
      "answer_preview": "Based on the provided context, the four Trial Design domains (TA, TE, TV, and TI) work together to define a study design by describing different structural and informational aspects: **planning, sequencing, scheduling, and defining eligibility.**\n\nHere is how they work together:\n\n1.  **TE (Trial Ele",
      "usage": {
        "prompt_tokens": 14191,
        "completion_tokens": 744,
        "total_tokens": 14935
      },
      "model": "deepseek/deepseek-chat",
      "elapsed_s": 7.89
    },
    {
      "id": "q30",
      "category": "cross_domain",
      "question": "What is the CO (Comments) domain and how does it reference records in other SDTM domains? Describe the RDOMAIN and IDVAR mechanism.",
      "source_recall": 1.0,
      "source_hits": [
        "domains/CO/spec.md",
        "domains/CO/assumptions.md"
      ],
      "source_misses": [],
      "top5_sources": [
        "VARIABLE_INDEX.md",
        "domains/CO/spec.md",
        "chapters/ch08_relationships.md",
        "domains/CO/assumptions.md",
        "domains/CO/assumptions.md"
      ],
      "top5_similarities": [
        0.569,
        0.6492,
        0.6728,
        0.6876,
        0.7154
      ],
      "fact_recall": 1.0,
      "fact_hits": [
        "COVAL",
        "RDOMAIN",
        "IDVAR"
      ],
      "fact_misses": [],
      "answer_preview": "# CO (Comments) Domain — Overview and Reference Mechanism\n\n## Domain Definition\n\nThe Comments (CO) domain is a **Special-Purpose Domain** used to capture unstructured free-text comments that are not part of normal domain data. Comments may come from investigators, central reviewers, or other sources",
      "usage": {
        "prompt_tokens": 14752,
        "completion_tokens": 1350,
        "total_tokens": 16102
      },
      "model": "deepseek/deepseek-chat",
      "elapsed_s": 10.28
    },
    {
      "id": "q31",
      "category": "cross_domain",
      "question": "How are the EC (Exposure as Collected) and EX (Exposure) domains different in purpose, and when should each be used?",
      "source_recall": 1.0,
      "source_hits": [
        "domains/EC/assumptions.md"
      ],
      "source_misses": [],
      "top5_sources": [
        "domains/EC/spec.md",
        "domains/EX/spec.md",
        "domains/EX/assumptions.md",
        "domains/EC/assumptions.md",
        "domains/EX/assumptions.md"
      ],
      "top5_similarities": [
        0.5814,
        0.5962,
        0.7328,
        0.7317,
        0.5907
      ],
      "fact_recall": 1.0,
      "fact_hits": [
        "collected",
        "EX",
        "EC"
      ],
      "fact_misses": [],
      "answer_preview": "## EC vs EX: Purpose and Usage\n\n### Core Distinction\n\nThe **EC (Exposure as Collected)** and **EX (Exposure)** domains serve fundamentally different purposes:\n\n| Aspect | EC | EX |\n|--------|----|----|\n| **Purpose** | Captures protocol-specified study treatment administrations **as collected** (raw ",
      "usage": {
        "prompt_tokens": 13859,
        "completion_tokens": 1049,
        "total_tokens": 14908
      },
      "model": "deepseek/deepseek-chat",
      "elapsed_s": 9.16
    },
    {
      "id": "q32",
      "category": "cross_domain",
      "question": "How is VISIT and VISITNUM used consistently across observation-class domains, and what role does the SV (Subject Visits) domain play in tracking actual visit dates?",
      "source_recall": 1.0,
      "source_hits": [
        "domains/SV/spec.md",
        "domains/SV/assumptions.md"
      ],
      "source_misses": [],
      "top5_sources": [
        "VARIABLE_INDEX.md",
        "domains/SV/spec.md",
        "model/03_special_purpose_domains.md",
        "chapters/ch04_general_assumptions.md",
        "domains/SV/assumptions.md"
      ],
      "top5_similarities": [
        0.6554,
        0.6543,
        0.7044,
        0.6665,
        0.6646
      ],
      "fact_recall": 1.0,
      "fact_hits": [
        "VISIT",
        "VISITNUM",
        "SV"
      ],
      "fact_misses": [],
      "answer_preview": "# Consistent Use of VISIT and VISITNUM Across Domains\n\n## Role of VISITNUM and VISIT in Observation-Class Domains\n\n### VISITNUM\n\n| Attribute | Value |\n|-----------|-------|\n| **Label** | Visit Number |\n| **Type** | Num |\n| **Role** | Timing (in Findings/Events/Interventions domains) |\n| **Core** | E",
      "usage": {
        "prompt_tokens": 13966,
        "completion_tokens": 1401,
        "total_tokens": 15367
      },
      "model": "deepseek/deepseek-chat",
      "elapsed_s": 9.94
    },
    {
      "id": "q33",
      "category": "cross_domain",
      "question": "What is the RELSPEC domain and how does it define relationships between datasets at the study level, as opposed to RELREC which links individual records?",
      "source_recall": 1.0,
      "source_hits": [
        "domains/RELSPEC/spec.md"
      ],
      "source_misses": [],
      "top5_sources": [
        "domains/RELSPEC/spec.md",
        "domains/RELREC/spec.md",
        "domains/RELREC/assumptions.md",
        "chapters/ch08_relationships.md",
        "chapters/ch08_relationships.md"
      ],
      "top5_similarities": [
        0.5814,
        0.6533,
        0.7707,
        0.7621,
        0.7252
      ],
      "fact_recall": 1.0,
      "fact_hits": [
        "RELSPEC",
        "RELREC"
      ],
      "fact_misses": [],
      "answer_preview": "# RELSPEC vs RELREC: Relationship Domains in SDTM\n\n## RELSPEC (Related Specimens)\n\n**RELSPEC** is a relationship dataset that describes **relationships between specimens** for a subject, enabling representation of **specimen lineage** (e.g., parent specimen to derived aliquots or processed specimens",
      "usage": {
        "prompt_tokens": 15174,
        "completion_tokens": 1365,
        "total_tokens": 16539
      },
      "model": "deepseek/deepseek-chat",
      "elapsed_s": 10.55
    },
    {
      "id": "q34",
      "category": "cross_domain",
      "question": "Which SDTM domains share the controlled terminology codelist for NY (No Yes Response, C66742), and what variable typically uses this codelist in those domains?",
      "source_recall": 1.0,
      "source_hits": [
        "VARIABLE_INDEX.md"
      ],
      "source_misses": [],
      "top5_sources": [
        "VARIABLE_INDEX.md",
        "terminology/core/general_part4.md",
        "chapters/ch04_general_assumptions.md",
        "chapters/ch04_general_assumptions.md",
        "model/01_concepts_and_terms.md"
      ],
      "top5_similarities": [
        0.4516,
        0.5903,
        0.6157,
        0.6351,
        0.5697
      ],
      "fact_recall": 1.0,
      "fact_hits": [
        "C66742",
        "NY"
      ],
      "fact_misses": [],
      "answer_preview": "Based on the context provided, the SDTM domains that share the **NY (No Yes Response, C66742)** codelist are:\n\n1. **SV (Subject Visits)** — **SVPRESP**, **SVOCCUR**, and **SVEPCHGI** use the NY codelist [Source: domains/SV/spec.md → Controlled Terminology]\n2. **TM (Trial Milestones)** — **TMRPT** us",
      "usage": {
        "prompt_tokens": 12524,
        "completion_tokens": 261,
        "total_tokens": 12785
      },
      "model": "deepseek/deepseek-chat",
      "elapsed_s": 3.74
    },
    {
      "id": "q11",
      "category": "concept",
      "question": "What are the three observation classes in the SDTM model?",
      "source_recall": 1.0,
      "source_hits": [
        "model/02_observation_classes.md"
      ],
      "source_misses": [],
      "top5_sources": [
        "model/01_concepts_and_terms.md",
        "model/02_observation_classes.md",
        "chapters/ch04_general_assumptions.md",
        "chapters/ch04_general_assumptions.md",
        "terminology/supplementary/supplementary_part5.md"
      ],
      "top5_similarities": [
        0.5632,
        0.7205,
        0.5452,
        0.5352,
        0.5473
      ],
      "fact_recall": 1.0,
      "fact_hits": [
        "Interventions",
        "Events",
        "Findings"
      ],
      "fact_misses": [],
      "answer_preview": "The three general observation classes in the SDTM model are:\n\n1. **Interventions** — Represent investigational, therapeutic, and other treatments that are administered to or used by a subject (with some actual or expected physiological effect). This includes treatments specified by the study protoco",
      "usage": {
        "prompt_tokens": 14455,
        "completion_tokens": 246,
        "total_tokens": 14701
      },
      "model": "deepseek/deepseek-chat",
      "elapsed_s": 3.19
    },
    {
      "id": "q12",
      "category": "concept",
      "question": "What do the Core designations Req, Exp, and Perm mean in SDTM?",
      "source_recall": 1.0,
      "source_hits": [
        "chapters/ch04"
      ],
      "source_misses": [],
      "top5_sources": [
        "chapters/ch04_general_assumptions.md",
        "VARIABLE_INDEX.md",
        "domains/SUPPQUAL/spec.md",
        "chapters/ch04_general_assumptions.md",
        "domains/CO/spec.md"
      ],
      "top5_similarities": [
        0.6571,
        0.5558,
        0.6055,
        5.7202,
        0.5926
      ],
      "fact_recall": 1.0,
      "fact_hits": [
        "Required",
        "Expected",
        "Permissible"
      ],
      "fact_misses": [],
      "answer_preview": "## SDTM Core Designations: Req, Exp, and Perm\n\nThe **Core** column in SDTM domain models specifies three categories that define whether a variable must be included in a dataset and whether it can contain null values:\n\n---\n\n### **Req (Required)**\n- **Meaning:** A Required variable is essential for id",
      "usage": {
        "prompt_tokens": 13241,
        "completion_tokens": 705,
        "total_tokens": 13946
      },
      "model": "deepseek/deepseek-chat",
      "elapsed_s": 6.87
    },
    {
      "id": "q13",
      "category": "concept",
      "question": "What is the difference between Topic, Qualifier, and Identifier variable roles?",
      "source_recall": 1.0,
      "source_hits": [
        "model/01_concepts_and_terms.md"
      ],
      "source_misses": [],
      "top5_sources": [
        "model/01_concepts_and_terms.md",
        "model/06_relationship_datasets.md",
        "chapters/ch08_relationships.md",
        "chapters/ch04_general_assumptions.md",
        "domains/ML/assumptions.md"
      ],
      "top5_similarities": [
        0.4934,
        0.4564,
        0.4718,
        0.526,
        0.5227
      ],
      "fact_recall": 1.0,
      "fact_hits": [
        "Topic",
        "Qualifier",
        "Identifier"
      ],
      "fact_misses": [],
      "answer_preview": "Based on the provided SDTM knowledge base, here is the difference between Identifier, Topic, and Qualifier variable roles:\n\n**1. Identifier variables**\n- **Purpose:** They identify the study, subject, domain, and sequence number of the record. **[Source: model/01_concepts_and_terms.md]**\n- **Core ex",
      "usage": {
        "prompt_tokens": 14997,
        "completion_tokens": 620,
        "total_tokens": 15617
      },
      "model": "deepseek/deepseek-chat",
      "elapsed_s": 6.01
    },
    {
      "id": "q14",
      "category": "concept",
      "question": "How should a sponsor create a new custom domain in SDTM?",
      "source_recall": 1.0,
      "source_hits": [
        "chapters/ch02"
      ],
      "source_misses": [],
      "top5_sources": [
        "chapters/ch04_general_assumptions.md",
        "chapters/ch02_fundamentals.md",
        "chapters/ch01_introduction.md",
        "chapters/ch04_general_assumptions.md",
        "chapters/ch03_submitting_data.md"
      ],
      "top5_similarities": [
        0.6009,
        0.473,
        0.4776,
        0.4945,
        0.4894
      ],
      "fact_recall": 1.0,
      "fact_hits": [
        "observation class"
      ],
      "fact_misses": [],
      "answer_preview": "Based on my knowledge base, here is how a sponsor should create a new custom domain in SDTM.\n\n### Key Rules for Creating a Custom Domain\n\n1.  **Determine the General Observation Class (GOC):** First, determine whether the observation represents an **Intervention**, **Event**, or **Finding** based on",
      "usage": {
        "prompt_tokens": 15350,
        "completion_tokens": 638,
        "total_tokens": 15988
      },
      "model": "deepseek/deepseek-chat",
      "elapsed_s": 5.97
    },
    {
      "id": "q15",
      "category": "concept",
      "question": "What are the three SDTM Core designation categories for variables, and what are the rules for handling a Permissible variable when a study did not collect the corresponding data item?",
      "source_recall": 1.0,
      "source_hits": [
        "chapters/ch04_general_assumptions.md"
      ],
      "source_misses": [],
      "top5_sources": [
        "chapters/ch04_general_assumptions.md",
        "chapters/ch01_introduction.md",
        "chapters/ch04_general_assumptions.md",
        "chapters/ch04_general_assumptions.md",
        "model/01_concepts_and_terms.md"
      ],
      "top5_similarities": [
        0.7806,
        0.6228,
        0.5995,
        0.5964,
        0.6896
      ],
      "fact_recall": 1.0,
      "fact_hits": [
        "Req",
        "Exp",
        "Perm"
      ],
      "fact_misses": [],
      "answer_preview": "## SDTM Core Designations and Permissible Variable Rules\n\n### Three Core Designation Categories\n\nThe SDTM defines three categories in the Core column of domain models **[Source: chapters/ch04_general_assumptions.md — 4.1.5 SDTM Core Designations]**:\n\n| Core Value | Meaning | Rule |\n|------------|---",
      "usage": {
        "prompt_tokens": 15673,
        "completion_tokens": 380,
        "total_tokens": 16053
      },
      "model": "deepseek/deepseek-chat",
      "elapsed_s": 4.18
    },
    {
      "id": "q35",
      "category": "concept",
      "question": "What is Controlled Terminology (CT) in SDTM and how does it constrain the values that variables can contain?",
      "source_recall": 1.0,
      "source_hits": [
        "chapters/ch04"
      ],
      "source_misses": [],
      "top5_sources": [
        "chapters/ch04_general_assumptions.md",
        "chapters/ch04_general_assumptions.md",
        "model/01_concepts_and_terms.md",
        "model/01_concepts_and_terms.md",
        "chapters/ch10_appendices.md"
      ],
      "top5_similarities": [
        0.607,
        0.6771,
        0.6231,
        0.5926,
        0.6137
      ],
      "fact_recall": 1.0,
      "fact_hits": [
        "codelist",
        "Controlled Terms"
      ],
      "fact_misses": [],
      "answer_preview": "## Controlled Terminology (CT) in SDTM\n\n### Definition and Purpose\n\n**Controlled Terminology (CT)** in SDTM refers to the standardized set of permissible values (codelists) that certain variables must use when populating their values. CDISC Controlled Terminology is centrally managed by the CDISC Co",
      "usage": {
        "prompt_tokens": 15145,
        "completion_tokens": 1222,
        "total_tokens": 16367
      },
      "model": "deepseek/deepseek-chat",
      "elapsed_s": 11.2
    },
    {
      "id": "q36",
      "category": "concept",
      "question": "What are the timing variables in SDTM (such as --DTC, --STDTC, --ENDTC) and how are they structured across domains?",
      "source_recall": 1.0,
      "source_hits": [
        "chapters/ch04"
      ],
      "source_misses": [],
      "top5_sources": [
        "chapters/ch04_general_assumptions.md",
        "model/01_concepts_and_terms.md",
        "chapters/ch04_general_assumptions.md",
        "model/02_observation_classes.md",
        "domains/BE/assumptions.md"
      ],
      "top5_similarities": [
        0.6533,
        0.7001,
        0.6573,
        0.6517,
        0.6647
      ],
      "fact_recall": 1.0,
      "fact_hits": [
        "DTC",
        "STDTC",
        "ENDTC",
        "Timing"
      ],
      "fact_misses": [],
      "answer_preview": "## SDTM Timing Variables: Structure and Usage Across Domains\n\n### Core Timing Variable Set\n\nSDTM defines a comprehensive set of timing variables available across the three General Observation Classes (Interventions, Events, Findings). The complete timing variable framework includes **48 variables** ",
      "usage": {
        "prompt_tokens": 15111,
        "completion_tokens": 1679,
        "total_tokens": 16790
      },
      "model": "deepseek/deepseek-chat",
      "elapsed_s": 14.0
    },
    {
      "id": "q37",
      "category": "concept",
      "question": "What are the Special-Purpose datasets in SDTM and which domains fall into this category?",
      "source_recall": 1.0,
      "source_hits": [
        "model/03_special_purpose_domains.md"
      ],
      "source_misses": [],
      "top5_sources": [
        "model/01_concepts_and_terms.md",
        "model/02_observation_classes.md",
        "model/03_special_purpose_domains.md",
        "chapters/ch04_general_assumptions.md",
        "chapters/ch04_general_assumptions.md"
      ],
      "top5_similarities": [
        0.666,
        0.6624,
        0.657,
        0.5978,
        0.6636
      ],
      "fact_recall": 1.0,
      "fact_hits": [
        "Special-Purpose",
        "DM",
        "CO",
        "SUPPQUAL"
      ],
      "fact_misses": [],
      "answer_preview": "Based on the SDTMIG v3.4 and SDTM v2.0, **special-purpose datasets** are a distinct category of standardized datasets that represent important information outside of the three general observation classes (Interventions, Events, Findings).\n\nThese datasets have unique structures and are not based on t",
      "usage": {
        "prompt_tokens": 16055,
        "completion_tokens": 714,
        "total_tokens": 16769
      },
      "model": "deepseek/deepseek-chat",
      "elapsed_s": 7.2
    },
    {
      "id": "q38",
      "category": "concept",
      "question": "How are SDTM domain abbreviation codes assigned? What are the rules for the two-character domain code?",
      "source_recall": 1.0,
      "source_hits": [
        "chapters/ch02"
      ],
      "source_misses": [],
      "top5_sources": [
        "chapters/ch04_general_assumptions.md",
        "domains/SV/spec.md",
        "domains/FT/spec.md",
        "domains/EX/spec.md",
        "domains/IE/spec.md"
      ],
      "top5_similarities": [
        0.6759,
        0.6703,
        0.6691,
        0.6691,
        0.6689
      ],
      "fact_recall": 1.0,
      "fact_hits": [
        "two-character",
        "DOMAIN"
      ],
      "fact_misses": [],
      "answer_preview": "## SDTM Domain Abbreviation Codes: Assignment Rules\n\n### Code Structure\n\nThe two-character domain abbreviation code (variable **DOMAIN**) uses the following character restrictions:\n- **First character**: Limited to A-Z only\n- **Second character**: Limited to A-Z or 0-9\n- **No other characters** are ",
      "usage": {
        "prompt_tokens": 10362,
        "completion_tokens": 758,
        "total_tokens": 11120
      },
      "model": "deepseek/deepseek-chat",
      "elapsed_s": 6.44
    },
    {
      "id": "q39",
      "category": "concept",
      "question": "What is the Findings About observation class and how does it differ from the standard Findings class?",
      "source_recall": 1.0,
      "source_hits": [
        "model/02_observation_classes.md"
      ],
      "source_misses": [],
      "top5_sources": [
        "domains/BS/spec.md",
        "chapters/ch08_relationships.md",
        "domains/CP/spec.md",
        "model/02_observation_classes.md",
        "domains/CV/spec.md"
      ],
      "top5_similarities": [
        0.7123,
        16.7017,
        0.7123,
        15.7114,
        0.7123
      ],
      "fact_recall": 1.0,
      "fact_hits": [
        "Findings About",
        "FAOBJ"
      ],
      "fact_misses": [],
      "answer_preview": "## Findings About Observation Class\n\nThe **Findings About** observation class is a **subtype** of the Findings general observation class used to record findings specifically about events or interventions, rather than about a subject directly. **[Source: model/02_observation_classes.md]**\n\n---\n\n### K",
      "usage": {
        "prompt_tokens": 13339,
        "completion_tokens": 797,
        "total_tokens": 14136
      },
      "model": "deepseek/deepseek-chat",
      "elapsed_s": 7.16
    },
    {
      "id": "q40",
      "category": "concept",
      "question": "What is the difference between collected data and derived data in SDTM, and how is the origin of a variable value indicated?",
      "source_recall": 1.0,
      "source_hits": [
        "chapters/ch04"
      ],
      "source_misses": [],
      "top5_sources": [
        "chapters/ch04_general_assumptions.md",
        "model/01_concepts_and_terms.md",
        "chapters/ch01_introduction.md",
        "model/06_relationship_datasets.md",
        "chapters/ch04_general_assumptions.md"
      ],
      "top5_similarities": [
        0.641,
        0.6331,
        0.5626,
        0.5606,
        0.5626
      ],
      "fact_recall": 1.0,
      "fact_hits": [
        "Collected",
        "Derived",
        "Origin"
      ],
      "fact_misses": [],
      "answer_preview": "## Difference Between Collected and Derived Data in SDTM\n\nIn SDTM, the distinction between collected and derived data is a fundamental metadata concept, communicated primarily through **Origin metadata** in the Define-XML document.\n\n### Definition of Collected vs. Derived Data\n\n| Type | Definition |",
      "usage": {
        "prompt_tokens": 16863,
        "completion_tokens": 778,
        "total_tokens": 17641
      },
      "model": "deepseek/deepseek-chat",
      "elapsed_s": 7.69
    },
    {
      "id": "q41",
      "category": "concept",
      "question": "What are the Trial Design Model datasets in SDTM and what kind of study-level information do they capture?",
      "source_recall": 1.0,
      "source_hits": [
        "model/05_study_level_data.md"
      ],
      "source_misses": [],
      "top5_sources": [
        "model/01_concepts_and_terms.md",
        "chapters/ch04_general_assumptions.md",
        "model/05_study_level_data.md",
        "domains/TA/assumptions.md",
        "domains/TI/assumptions.md"
      ],
      "top5_similarities": [
        0.6589,
        0.66,
        0.8164,
        0.6195,
        0.6483
      ],
      "fact_recall": 1.0,
      "fact_hits": [
        "Trial Design",
        "TA",
        "TE",
        "TV"
      ],
      "fact_misses": [],
      "answer_preview": "## Trial Design Model Datasets in SDTM\n\nThe SDTM includes **two types of study-level data**: trial design data and study reference data **[Source: model/05_study_level_data.md — Overview]**.\n\nThe **Trial Design Model (TDM)** provides a standardized way to describe the planned conduct of a clinical t",
      "usage": {
        "prompt_tokens": 15940,
        "completion_tokens": 950,
        "total_tokens": 16890
      },
      "model": "deepseek/deepseek-chat",
      "elapsed_s": 8.9
    },
    {
      "id": "q16",
      "category": "mixed",
      "question": "What values are allowed for AESEV and what is its codelist code?",
      "source_recall": 1.0,
      "source_hits": [
        "domains/AE/spec.md",
        "terminology/core/ae.md"
      ],
      "source_misses": [],
      "top5_sources": [
        "terminology/core/ae.md",
        "domains/AE/assumptions.md",
        "domains/DM/examples.md",
        "domains/AE/spec.md",
        "chapters/ch04_general_assumptions.md"
      ],
      "top5_similarities": [
        0.3821,
        0.6134,
        8.5566,
        0.602,
        7.5799
      ],
      "fact_recall": 1.0,
      "fact_hits": [
        "C66769",
        "MILD",
        "MODERATE",
        "SEVERE"
      ],
      "fact_misses": [],
      "answer_preview": "Based on the provided context, the values allowed for **AESEV** are:\n\n**MILD** (C41338), **MODERATE** (C41339), and **SEVERE** (C41340). [Source: terminology/core/ae.md]\n\nThe codelist code is **C66769** (Severity/Intensity Scale for Adverse Events), which is not extensible. [Source: terminology/core",
      "usage": {
        "prompt_tokens": 14827,
        "completion_tokens": 154,
        "total_tokens": 14981
      },
      "model": "deepseek/deepseek-chat",
      "elapsed_s": 2.78
    },
    {
      "id": "q17",
      "category": "mixed",
      "question": "How are date and time variables formatted in SDTM and what suffix do they use?",
      "source_recall": 1.0,
      "source_hits": [
        "chapters/ch04"
      ],
      "source_misses": [],
      "top5_sources": [
        "chapters/ch04_general_assumptions.md",
        "model/01_concepts_and_terms.md",
        "chapters/ch04_general_assumptions.md",
        "chapters/ch04_general_assumptions.md",
        "chapters/ch01_introduction.md"
      ],
      "top5_similarities": [
        0.763,
        0.6154,
        0.6041,
        0.5795,
        9.6467
      ],
      "fact_recall": 1.0,
      "fact_hits": [
        "ISO 8601",
        "DTC"
      ],
      "fact_misses": [],
      "answer_preview": "Based on the provided context, date and time variables in SDTM are formatted according to the **ISO 8601 international standard**, using the **extended format**. These variables are character/text data types and use the **DTC** naming fragment suffix.\n\n**Format:**\n\nThe SDTMIG uses the ISO 8601 exten",
      "usage": {
        "prompt_tokens": 16523,
        "completion_tokens": 500,
        "total_tokens": 17023
      },
      "model": "deepseek/deepseek-chat",
      "elapsed_s": 4.9
    },
    {
      "id": "q18",
      "category": "mixed",
      "question": "Explain the MedDRA coding chain for adverse events from verbatim term to dictionary term.",
      "source_recall": 1.0,
      "source_hits": [
        "domains/AE/spec.md",
        "domains/AE/assumptions.md"
      ],
      "source_misses": [],
      "top5_sources": [
        "domains/AE/spec.md",
        "chapters/ch04_general_assumptions.md",
        "domains/AE/assumptions.md",
        "domains/MH/assumptions.md",
        "terminology/core/trial_design.md"
      ],
      "top5_similarities": [
        0.6135,
        0.6726,
        0.6289,
        0.6303,
        0.6197
      ],
      "fact_recall": 1.0,
      "fact_hits": [
        "AETERM",
        "AEMODIFY",
        "AEDECOD",
        "Preferred Term"
      ],
      "fact_misses": [],
      "answer_preview": "## MedDRA Coding Chain for Adverse Events\n\nThe MedDRA coding chain transforms the collected verbatim term through multiple levels of the MedDRA hierarchy, with each level represented by paired variables (text description and code number) in the SDTM AE domain.\n\n### Chain Overview\n\n**Verbatim → Modif",
      "usage": {
        "prompt_tokens": 13936,
        "completion_tokens": 1593,
        "total_tokens": 15529
      },
      "model": "deepseek/deepseek-chat",
      "elapsed_s": 11.74
    },
    {
      "id": "q19",
      "category": "mixed",
      "question": "What controlled terminology codelist is used for DSDECOD when DSCAT equals 'DISPOSITION EVENT', and list specific CDISC Submission Values from that codelist for reasons of non-completion.",
      "source_recall": 1.0,
      "source_hits": [
        "domains/DS/assumptions.md",
        "terminology/core/disposition.md"
      ],
      "source_misses": [],
      "top5_sources": [
        "domains/DS/spec.md",
        "terminology/core/disposition.md",
        "domains/DS/assumptions.md",
        "domains/DS/assumptions.md",
        "domains/DS/spec.md"
      ],
      "top5_similarities": [
        0.8036,
        0.634,
        0.7554,
        0.7186,
        0.7248
      ],
      "fact_recall": 0.5,
      "fact_hits": [
        "C66727"
      ],
      "fact_misses": [
        "NCOMPLT"
      ],
      "answer_preview": "Based on the context, the controlled terminology codelist used for **DSDECOD** when **DSCAT** equals `\"DISPOSITION EVENT\"` is **C66727 (Completion/Reason for Non-Completion)**. This is an extensible codelist. **[Source: domains/DS/assumptions.md item_3.b]**\n\nHowever, the provided context does **not*",
      "usage": {
        "prompt_tokens": 11106,
        "completion_tokens": 521,
        "total_tokens": 11627
      },
      "model": "deepseek/deepseek-chat",
      "elapsed_s": 5.73
    },
    {
      "id": "q20",
      "category": "mixed",
      "question": "In the DM domain, what is the difference between the RFSTDTC/RFENDTC reference period pair and the RFXSTDTC/RFXENDTC pair, and under what circumstances will RFSTDTC be null?",
      "source_recall": 1.0,
      "source_hits": [
        "domains/DM/assumptions.md",
        "domains/DM/spec.md"
      ],
      "source_misses": [],
      "top5_sources": [
        "domains/DM/spec.md",
        "domains/DM/assumptions.md",
        "domains/DM/assumptions.md",
        "domains/MH/spec.md",
        "domains/CE/spec.md"
      ],
      "top5_similarities": [
        0.624,
        0.6645,
        0.6585,
        0.5575,
        0.5342
      ],
      "fact_recall": 1.0,
      "fact_hits": [
        "sponsor-defined",
        "screen failure"
      ],
      "fact_misses": [],
      "answer_preview": "## DM Domain: RFSTDTC/RFENDTC vs. RFXSTDTC/RFXENDTC — Difference and Null Conditions\n\n### Differences Between the Reference Period Pairs\n\n**RFSTDTC / RFENDTC (Subject Reference Start/End Date/Time)**\n\n- **Role:** Record Qualifier\n- **Definition:** Sponsor-defined reference period; **usually** repres",
      "usage": {
        "prompt_tokens": 12976,
        "completion_tokens": 880,
        "total_tokens": 13856
      },
      "model": "deepseek/deepseek-chat",
      "elapsed_s": 8.17
    },
    {
      "id": "q42",
      "category": "mixed",
      "question": "In the LB domain, how are normal ranges represented using LBORNRLO and LBORNRHI, and what is the LBNRIND variable used for?",
      "source_recall": 1.0,
      "source_hits": [
        "domains/LB/spec.md",
        "domains/LB/assumptions.md"
      ],
      "source_misses": [],
      "top5_sources": [
        "domains/LB/spec.md",
        "domains/LB/assumptions.md",
        "domains/LB/assumptions.md",
        "domains/LB/examples.md",
        "domains/IS/spec.md"
      ],
      "top5_similarities": [
        0.7713,
        0.764,
        0.7123,
        0.6051,
        0.6217
      ],
      "fact_recall": 1.0,
      "fact_hits": [
        "LBORNRLO",
        "LBORNRHI",
        "LBNRIND"
      ],
      "fact_misses": [],
      "answer_preview": "## Normal Range Representation in the LB Domain\n\n### LBORNRLO and LBORNRHI (Original Unit Reference Range)\n\n- **LBORNRLO** (Order: 20, Label: \"Reference Range Lower Limit in Orig Unit\", Type: Char, Role: Variable Qualifier, Core: Expected) — Represents the **lower end** of the reference range for co",
      "usage": {
        "prompt_tokens": 12527,
        "completion_tokens": 810,
        "total_tokens": 13337
      },
      "model": "deepseek/deepseek-chat",
      "elapsed_s": 6.97
    },
    {
      "id": "q43",
      "category": "mixed",
      "question": "What is the controlled terminology codelist for the SEX variable in the DM domain? Provide the codelist code and describe the Core designation.",
      "source_recall": 1.0,
      "source_hits": [
        "domains/DM/spec.md"
      ],
      "source_misses": [],
      "top5_sources": [
        "domains/DM/spec.md",
        "terminology/core/dm.md",
        "chapters/ch04_general_assumptions.md",
        "domains/DM/spec.md",
        "chapters/ch04_general_assumptions.md"
      ],
      "top5_similarities": [
        0.6578,
        0.5551,
        0.633,
        0.6311,
        0.5852
      ],
      "fact_recall": 1.0,
      "fact_hits": [
        "SEX",
        "C66731",
        "Req"
      ],
      "fact_misses": [],
      "answer_preview": "## SEX Variable in DM Domain — Controlled Terminology\n\n### Codelist Code: **C66731** (Sex)\n\n### Source: [domains/DM/spec.md]\n\n| Attribute | Value |\n|-----------|-------|\n| **Label** | Sex |\n| **Type** | Char |\n| **Controlled Terms** | C66731 |\n| **Role** | Record Qualifier |\n| **Core** | **Req** (Re",
      "usage": {
        "prompt_tokens": 11798,
        "completion_tokens": 555,
        "total_tokens": 12353
      },
      "model": "deepseek/deepseek-chat",
      "elapsed_s": 6.61
    },
    {
      "id": "q44",
      "category": "mixed",
      "question": "In the VS domain, what is the controlled terminology codelist code for VSTESTCD, and give examples of standard vital signs test codes like systolic and diastolic blood pressure.",
      "source_recall": 1.0,
      "source_hits": [
        "domains/VS/spec.md"
      ],
      "source_misses": [],
      "top5_sources": [
        "domains/VS/spec.md",
        "terminology/core/vs.md",
        "domains/VS/spec.md",
        "domains/VS/spec.md",
        "VARIABLE_INDEX.md"
      ],
      "top5_similarities": [
        0.7284,
        0.4981,
        0.6737,
        0.6183,
        0.5512
      ],
      "fact_recall": 1.0,
      "fact_hits": [
        "C66741",
        "SYSBP",
        "DIABP"
      ],
      "fact_misses": [],
      "answer_preview": "Based on the retrieved context, here is the information for VSTESTCD in the VS domain:\n\n**VSTESTCD** (Vital Signs Test Short Name)\n- **Codelist Code:** C66741\n- **Label:** Vital Signs Test Short Name\n- **Type:** Char\n- **Role:** Topic\n- **Core:** Req\n\n[Source: domains/VS/spec.md — VSTESTCD, VARIABLE",
      "usage": {
        "prompt_tokens": 14381,
        "completion_tokens": 228,
        "total_tokens": 14609
      },
      "model": "deepseek/deepseek-chat",
      "elapsed_s": 3.7
    },
    {
      "id": "q45",
      "category": "mixed",
      "question": "What is the RACE variable in the DM domain, what codelist does it use, and what is its Core designation?",
      "source_recall": 1.0,
      "source_hits": [
        "domains/DM/spec.md"
      ],
      "source_misses": [],
      "top5_sources": [
        "domains/DM/spec.md",
        "terminology/core/dm.md",
        "domains/DM/examples.md",
        "domains/DM/examples.md",
        "domains/DM/assumptions.md"
      ],
      "top5_similarities": [
        0.6135,
        0.469,
        0.5662,
        0.5707,
        0.6038
      ],
      "fact_recall": 1.0,
      "fact_hits": [
        "RACE",
        "C74457",
        "Exp"
      ],
      "fact_misses": [],
      "answer_preview": "Based on the provided context, the RACE variable in the DM domain is defined as follows:\n\n**Definition:**\n- **Label:** Race\n- **Type:** Char\n- **Role:** Record Qualifier\n- **Core:** Exp (Expected)\n- **Controlled Terms:** C74457\n\n**[Source: domains/DM/spec.md — RACE]**\n\n**Controlled Terminology (C744",
      "usage": {
        "prompt_tokens": 15906,
        "completion_tokens": 652,
        "total_tokens": 16558
      },
      "model": "deepseek/deepseek-chat",
      "elapsed_s": 5.22
    },
    {
      "id": "q46",
      "category": "mixed",
      "question": "What is the AEOUT (Outcome of Adverse Event) variable in the AE domain and what controlled terminology codelist code does it use?",
      "source_recall": 1.0,
      "source_hits": [
        "domains/AE/spec.md"
      ],
      "source_misses": [],
      "top5_sources": [
        "domains/AE/spec.md",
        "terminology/core/ae.md",
        "domains/AE/spec.md",
        "VARIABLE_INDEX.md",
        "domains/AE/assumptions.md"
      ],
      "top5_similarities": [
        0.7992,
        0.5705,
        0.6582,
        0.6157,
        0.7025
      ],
      "fact_recall": 1.0,
      "fact_hits": [
        "AEOUT",
        "C66768",
        "Perm"
      ],
      "fact_misses": [],
      "answer_preview": "## AEOUT — Outcome of Adverse Event\n\n### Variable Definition\n\n| Attribute | Value |\n|-----------|-------|\n| **Label** | Outcome of Adverse Event |\n| **Type** | Char |\n| **Role** | Record Qualifier |\n| **Core** | Perm (Permissible) |\n| **Controlled Terms** | C66768 |\n| **CDISC Notes** | Description o",
      "usage": {
        "prompt_tokens": 14579,
        "completion_tokens": 403,
        "total_tokens": 14982
      },
      "model": "deepseek/deepseek-chat",
      "elapsed_s": 4.48
    },
    {
      "id": "q47",
      "category": "mixed",
      "question": "How do QS (Questionnaires) domains handle instrument-specific variables using QSCAT, and what role does QSTESTCD play in organizing question-level data?",
      "source_recall": 1.0,
      "source_hits": [
        "domains/QS/spec.md",
        "domains/QS/assumptions.md"
      ],
      "source_misses": [],
      "top5_sources": [
        "VARIABLE_INDEX.md",
        "domains/QS/spec.md",
        "chapters/ch04_general_assumptions.md",
        "chapters/ch08_relationships.md",
        "domains/SUPPQUAL/examples.md"
      ],
      "top5_similarities": [
        0.6339,
        0.6923,
        0.6635,
        0.5798,
        0.6612
      ],
      "fact_recall": 1.0,
      "fact_hits": [
        "QSTESTCD",
        "QSCAT",
        "Topic"
      ],
      "fact_misses": [],
      "answer_preview": "Based on the retrieved context, here is how the QS (Questionnaires) domain handles instrument-specific variables using `QSCAT` and how `QSTESTCD` organizes question-level data.\n\n### 1. `QSCAT`: The Instrument-Specific Grouping Variable\n\n`QSCAT` is the primary mechanism for identifying and grouping d",
      "usage": {
        "prompt_tokens": 16191,
        "completion_tokens": 1124,
        "total_tokens": 17315
      },
      "model": "deepseek/deepseek-chat",
      "elapsed_s": 9.37
    },
    {
      "id": "q48",
      "category": "mixed",
      "question": "What is the FATESTCD variable's controlled terminology codelist code in the FA domain, and give examples of standard FA test codes?",
      "source_recall": 1.0,
      "source_hits": [
        "domains/FA/spec.md"
      ],
      "source_misses": [],
      "top5_sources": [
        "domains/FA/spec.md",
        "terminology/core/findings_about.md",
        "domains/FA/assumptions.md",
        "domains/FA/spec.md",
        "chapters/ch04_general_assumptions.md"
      ],
      "top5_similarities": [
        0.678,
        0.4042,
        0.6327,
        0.6766,
        0.5692
      ],
      "fact_recall": 1.0,
      "fact_hits": [
        "FATESTCD",
        "C101832"
      ],
      "fact_misses": [],
      "answer_preview": "Based on the retrieved context, the FA domain's `FATESTCD` variable has the following characteristics:\n\n### FATESTCD Controlled Terminology\n\n| Attribute | Value |\n|-----------|-------|\n| **Label** | Findings About Test Short Name |\n| **Type** | Char |\n| **Controlled Terms Codelist** | **C101832** (F",
      "usage": {
        "prompt_tokens": 15382,
        "completion_tokens": 543,
        "total_tokens": 15925
      },
      "model": "deepseek/deepseek-chat",
      "elapsed_s": 5.63
    },
    {
      "id": "s01",
      "category": "single_domain",
      "question": "In the DM domain, what is the controlled terminology codelist code for the SEX variable, and what are its four permitted submission values?",
      "source_recall": 1.0,
      "source_hits": [
        "terminology/core/dm.md",
        "domains/DM/spec.md"
      ],
      "source_misses": [],
      "top5_sources": [
        "domains/DM/spec.md",
        "terminology/core/dm.md",
        "domains/DM/assumptions.md",
        "domains/DM/spec.md",
        "chapters/ch04_general_assumptions.md"
      ],
      "top5_similarities": [
        0.6528,
        0.5864,
        0.556,
        0.5862,
        0.5688
      ],
      "fact_recall": 1.0,
      "fact_hits": [
        "C66731",
        "F",
        "M",
        "U",
        "UNDIFFERENTIATED"
      ],
      "fact_misses": [],
      "answer_preview": "Based on the context provided, the controlled terminology codelist code for the **SEX** variable in the DM domain is **C66731**.\n\nThe four permitted CDISC Submission Values are:\n\n1.  **F** (Female)\n2.  **M** (Male)\n3.  **U** (Unknown)\n4.  **UNDIFFERENTIATED**\n\n**[Source: domains/DM/spec.md]**\n**[Sou",
      "usage": {
        "prompt_tokens": 13616,
        "completion_tokens": 96,
        "total_tokens": 13712
      },
      "model": "deepseek/deepseek-chat",
      "elapsed_s": 2.29
    },
    {
      "id": "s02",
      "category": "concept",
      "question": "What is the SUPPQUAL variable QNAM and what character constraints apply to it? What is the maximum length and what characters are allowed?",
      "source_recall": 1.0,
      "source_hits": [
        "domains/SUPPQUAL/spec.md",
        "model/06_relationship_datasets.md"
      ],
      "source_misses": [],
      "top5_sources": [
        "domains/SUPPQUAL/spec.md",
        "chapters/ch04_general_assumptions.md",
        "chapters/ch04_general_assumptions.md",
        "chapters/ch08_relationships.md",
        "chapters/ch04_general_assumptions.md"
      ],
      "top5_similarities": [
        0.6726,
        0.5437,
        0.5102,
        0.6731,
        0.5625
      ],
      "fact_recall": 1.0,
      "fact_hits": [
        "QNAM",
        "8 characters",
        "letters, numbers, or underscores",
        "cannot start with a number",
        "Qualifier Variable Name"
      ],
      "fact_misses": [],
      "answer_preview": "## QNAM Variable Definition\n\n**QNAM** (Qualifier Variable Name) is a core variable in the SUPPQUAL (Supplemental Qualifiers) domain.\n\n### Variable Specification\n\n| Attribute | Value |\n|-----------|-------|\n| **Label** | Qualifier Variable Name |\n| **Type** | Char |\n| **Role** | Topic |\n| **Core** | ",
      "usage": {
        "prompt_tokens": 16092,
        "completion_tokens": 425,
        "total_tokens": 16517
      },
      "model": "deepseek/deepseek-chat",
      "elapsed_s": 4.11
    },
    {
      "id": "s03",
      "category": "cross_domain",
      "question": "The DM variable RFXSTDTC is defined as equal to the earliest value of which variable in the EX domain? Similarly, RFXENDTC is equal to the latest value of which EX variable (or which fallback variable if that is not collected)?",
      "source_recall": 1.0,
      "source_hits": [
        "domains/DM/spec.md",
        "domains/EX/spec.md"
      ],
      "source_misses": [],
      "top5_sources": [
        "domains/DM/spec.md",
        "domains/EX/spec.md",
        "domains/DM/assumptions.md",
        "domains/DM/spec.md",
        "domains/DM/spec.md"
      ],
      "top5_similarities": [
        0.6568,
        0.5803,
        0.6371,
        0.6269,
        0.5537
      ],
      "fact_recall": 1.0,
      "fact_hits": [
        "EXSTDTC",
        "RFXSTDTC",
        "EXENDTC",
        "RFXENDTC",
        "earliest",
        "latest"
      ],
      "fact_misses": [],
      "answer_preview": "Based on the retrieved context, the answers are as follows:\n\n1. **RFXSTDTC** is defined as equal to the earliest value of **EXSTDTC**.\n   - **[Source: domains/DM/spec.md -- RFXSTDTC]**\n\n2. **RFXENDTC** is defined as equal to the latest value of **EXENDTC** (or the latest value of **EXSTDTC** if EXEN",
      "usage": {
        "prompt_tokens": 14142,
        "completion_tokens": 118,
        "total_tokens": 14260
      },
      "model": "deepseek/deepseek-chat",
      "elapsed_s": 1.88
    },
    {
      "id": "s04",
      "category": "mixed",
      "question": "In the AE domain, what is the controlled terminology codelist code for the AEACN (Action Taken with Study Treatment) variable, and what ICH E2B example values does the CDISC Notes field list for this variable?",
      "source_recall": 1.0,
      "source_hits": [
        "domains/AE/spec.md",
        "terminology/core/ae.md"
      ],
      "source_misses": [],
      "top5_sources": [
        "domains/AE/spec.md",
        "terminology/core/ae.md",
        "domains/AE/spec.md",
        "domains/AE/assumptions.md",
        "domains/AE/spec.md"
      ],
      "top5_similarities": [
        0.7623,
        0.5455,
        0.681,
        0.676,
        0.6262
      ],
      "fact_recall": 1.0,
      "fact_hits": [
        "C66767",
        "DRUG WITHDRAWN",
        "DOSE REDUCED",
        "DOSE INCREASED",
        "DOSE NOT CHANGED",
        "UNKNOWN",
        "NOT APPLICABLE"
      ],
      "fact_misses": [],
      "answer_preview": "Based on the provided context, here is the information about the AEACN variable:\n\n**Controlled Terminology Codelist Code:** C66767 **[Source: domains/AE/spec.md]**\n\n**ICH E2B Example Values listed in CDISC Notes:**\nAccording to the CDISC Notes, examples of AEACN values include the ICH E2B values:\n- ",
      "usage": {
        "prompt_tokens": 13624,
        "completion_tokens": 179,
        "total_tokens": 13803
      },
      "model": "deepseek/deepseek-chat",
      "elapsed_s": 2.67
    },
    {
      "id": "s05",
      "category": "single_domain",
      "question": "In the VS domain, what is the controlled terminology codelist code for the VSTESTCD variable? Name the codelist, state whether it is extensible, and give three example TESTCD values listed for blood pressure and heart rate.",
      "source_recall": 1.0,
      "source_hits": [
        "domains/VS/spec.md",
        "terminology/core/vs.md"
      ],
      "source_misses": [],
      "top5_sources": [
        "domains/VS/spec.md",
        "terminology/core/vs.md",
        "chapters/ch04_general_assumptions.md",
        "chapters/ch04_general_assumptions.md",
        "domains/IS/assumptions.md"
      ],
      "top5_similarities": [
        0.6639,
        0.4761,
        0.5932,
        0.5578,
        0.5883
      ],
      "fact_recall": 0.8333,
      "fact_hits": [
        "C66741",
        "Vital Signs Test Code",
        "SYSBP",
        "DIABP",
        "HR"
      ],
      "fact_misses": [
        "Extensible: Yes"
      ],
      "answer_preview": "Based on the SDTMIG v3.4 knowledge base:\n\n## Answer\n\n### VSTESTCD Controlled Terminology\n\nThe controlled terminology codelist for the VS domain variable **VSTESTCD** is:\n\n- **Codelist Code:** C66741\n- **Codelist Name:** Vital Signs Test Code\n- **Extensible:** (Not explicitly stated in the retrieved ",
      "usage": {
        "prompt_tokens": 13501,
        "completion_tokens": 228,
        "total_tokens": 13729
      },
      "model": "deepseek/deepseek-chat",
      "elapsed_s": 3.01
    },
    {
      "id": "q54",
      "category": "single_domain",
      "question": "In the DV (Protocol Deviations) domain, which observation class does it belong to and what is the Topic variable DVTERM?",
      "source_recall": 1.0,
      "source_hits": [
        "domains/DV/spec.md"
      ],
      "source_misses": [],
      "top5_sources": [
        "domains/DV/spec.md",
        "domains/DV/assumptions.md",
        "VARIABLE_INDEX.md",
        "domains/DV/examples.md",
        "domains/DV/assumptions.md"
      ],
      "top5_similarities": [
        0.7536,
        0.7551,
        0.6742,
        0.6157,
        0.5634
      ],
      "fact_recall": 1.0,
      "fact_hits": [
        "Events",
        "DVTERM",
        "Protocol Deviation Term",
        "Topic"
      ],
      "fact_misses": [],
      "answer_preview": "Based on the retrieved context, the DV (Protocol Deviations) domain belongs to the **Events** observation class, and the topic variable **DVTERM** is defined as follows:\n\n- **Label:** Protocol Deviation Term\n- **Type:** Char\n- **Role:** Topic\n- **Core:** Req (Required)\n- **CDISC Notes:** Verbatim na",
      "usage": {
        "prompt_tokens": 12967,
        "completion_tokens": 319,
        "total_tokens": 13286
      },
      "model": "deepseek/deepseek-chat",
      "elapsed_s": 3.74
    },
    {
      "id": "q55",
      "category": "single_domain",
      "question": "What is the structure and observation class of the DS (Disposition) domain, and what is the role of the DSTERM variable?",
      "source_recall": 1.0,
      "source_hits": [
        "domains/DS/spec.md"
      ],
      "source_misses": [],
      "top5_sources": [
        "domains/DS/spec.md",
        "domains/DS/assumptions.md",
        "VARIABLE_INDEX.md",
        "domains/DS/assumptions.md",
        "domains/DS/assumptions.md"
      ],
      "top5_similarities": [
        0.6292,
        0.5828,
        0.6232,
        0.5974,
        0.5387
      ],
      "fact_recall": 1.0,
      "fact_hits": [
        "Events",
        "DSTERM",
        "Topic",
        "disposition"
      ],
      "fact_misses": [],
      "answer_preview": "Based on the retrieved context, the DS (Disposition) domain belongs to the **Events** observation class, and the **DSTERM** variable serves as the **Topic** variable.\n\n### DS Domain Structure and Observation Class\n\n- **Observation Class:** DS is classified as an Events domain within the general obse",
      "usage": {
        "prompt_tokens": 14388,
        "completion_tokens": 699,
        "total_tokens": 15087
      },
      "model": "deepseek/deepseek-chat",
      "elapsed_s": 5.73
    },
    {
      "id": "q56",
      "category": "single_domain",
      "question": "In the SU (Substance Use) domain, what observation class is it and what is the SUTRT variable?",
      "source_recall": 1.0,
      "source_hits": [
        "domains/SU/spec.md"
      ],
      "source_misses": [],
      "top5_sources": [
        "domains/SU/spec.md",
        "VARIABLE_INDEX.md",
        "domains/SU/assumptions.md",
        "domains/SU/assumptions.md",
        "domains/SU/examples.md"
      ],
      "top5_similarities": [
        0.6606,
        0.6706,
        0.6671,
        0.6106,
        0.5999
      ],
      "fact_recall": 1.0,
      "fact_hits": [
        "Interventions",
        "SUTRT",
        "Reported Name of Substance",
        "Topic"
      ],
      "fact_misses": [],
      "answer_preview": "Based on the provided context, here are the details:\n\n## SU Domain: Observation Class\n\nThe SU (Substance Use) domain belongs to the **Interventions** observation class. This is confirmed by the variable index header and the INDEX.md listing.\n\n**[Source:** INDEX.md — \"### Interventions Domains\" listi",
      "usage": {
        "prompt_tokens": 12169,
        "completion_tokens": 298,
        "total_tokens": 12467
      },
      "model": "deepseek/deepseek-chat",
      "elapsed_s": 3.27
    },
    {
      "id": "q57",
      "category": "single_domain",
      "question": "What is the PR (Procedures) domain used for, and what is the PRTRT topic variable along with its Core designation?",
      "source_recall": 1.0,
      "source_hits": [
        "domains/PR/spec.md"
      ],
      "source_misses": [],
      "top5_sources": [
        "domains/PR/spec.md",
        "domains/PR/examples.md",
        "VARIABLE_INDEX.md",
        "domains/PR/assumptions.md",
        "domains/PR/examples.md"
      ],
      "top5_similarities": [
        0.7274,
        0.5826,
        0.6309,
        0.6075,
        0.5466
      ],
      "fact_recall": 1.0,
      "fact_hits": [
        "Interventions",
        "PRTRT",
        "Reported Name of Procedure",
        "Req"
      ],
      "fact_misses": [],
      "answer_preview": "Based on the SDTM knowledge base, here is the definition and use of the PR domain and the PRTRT variable:\n\n## PR (Procedures) Domain Use\n\nThe PR domain is based on the **Interventions observation class** and is used to represent all collected procedures performed on a subject. **[Source: domains/PR/",
      "usage": {
        "prompt_tokens": 14173,
        "completion_tokens": 383,
        "total_tokens": 14556
      },
      "model": "deepseek/deepseek-chat",
      "elapsed_s": 4.19
    },
    {
      "id": "q58",
      "category": "single_domain",
      "question": "Describe the TS (Trial Summary) domain structure and the TSPARMCD variable, including its controlled terminology codelist code and length limit.",
      "source_recall": 1.0,
      "source_hits": [
        "domains/TS/spec.md"
      ],
      "source_misses": [],
      "top5_sources": [
        "domains/TS/spec.md",
        "terminology/core/trial_design.md",
        "VARIABLE_INDEX.md",
        "model/05_study_level_data.md",
        "domains/TS/assumptions.md"
      ],
      "top5_similarities": [
        0.7561,
        0.5199,
        0.715,
        0.5921,
        0.6527
      ],
      "fact_recall": 1.0,
      "fact_hits": [
        "Trial Summary",
        "TSPARMCD",
        "C66738",
        "8 characters"
      ],
      "fact_misses": [],
      "answer_preview": "## TS (Trial Summary) Domain Structure\n\nThe Trial Summary (TS) domain allows the sponsor to submit a summary of the trial in a structured format, where each record contains the value of a parameter or characteristic of the trial (e.g., trial phase, protocol title, objectives). It contains informatio",
      "usage": {
        "prompt_tokens": 12248,
        "completion_tokens": 1068,
        "total_tokens": 13316
      },
      "model": "deepseek/deepseek-chat",
      "elapsed_s": 8.28
    },
    {
      "id": "q59",
      "category": "single_domain",
      "question": "In the DD (Death Details) domain, what is the DDTESTCD variable and its controlled terminology codelist code?",
      "source_recall": 1.0,
      "source_hits": [
        "domains/DD/spec.md"
      ],
      "source_misses": [],
      "top5_sources": [
        "domains/DD/spec.md",
        "terminology/core/other_part4.md",
        "domains/DD/spec.md",
        "VARIABLE_INDEX.md",
        "domains/DD/spec.md"
      ],
      "top5_similarities": [
        0.766,
        0.6055,
        0.7584,
        0.6406,
        0.7599
      ],
      "fact_recall": 1.0,
      "fact_hits": [
        "DDTESTCD",
        "C116108",
        "Topic"
      ],
      "fact_misses": [],
      "answer_preview": "Based on the retrieved context, the **DDTESTCD** variable in the DD (Death Details) domain is defined as follows:\n\n- **Label:** Death Detail Assessment Short Name\n- **Type:** Char\n- **Role:** Topic\n- **Core:** Req\n- **Controlled Terms:** C116108\n\nThe associated controlled terminology codelist is **S",
      "usage": {
        "prompt_tokens": 11880,
        "completion_tokens": 173,
        "total_tokens": 12053
      },
      "model": "deepseek/deepseek-chat",
      "elapsed_s": 2.65
    },
    {
      "id": "q60",
      "category": "single_domain",
      "question": "What is the CE (Clinical Events) domain, which observation class does it belong to, and what is the CETERM variable?",
      "source_recall": 1.0,
      "source_hits": [
        "domains/CE/spec.md"
      ],
      "source_misses": [],
      "top5_sources": [
        "domains/CE/spec.md",
        "VARIABLE_INDEX.md",
        "domains/CE/assumptions.md",
        "domains/CE/assumptions.md",
        "domains/CE/examples.md"
      ],
      "top5_similarities": [
        0.6749,
        0.6815,
        0.6588,
        0.6277,
        0.5964
      ],
      "fact_recall": 1.0,
      "fact_hits": [
        "Events",
        "CETERM",
        "Topic",
        "Clinical Event"
      ],
      "fact_misses": [],
      "answer_preview": "## CE (Clinical Events) Domain\n\n### Overview\n\nThe **Clinical Events (CE)** domain is used to represent events of clinical interest that are **not** considered Adverse Events (AEs), as prospectively defined by the protocol. These may include:\n\n- Episodes of symptoms of the disease under study (e.g., ",
      "usage": {
        "prompt_tokens": 16770,
        "completion_tokens": 971,
        "total_tokens": 17741
      },
      "model": "deepseek/deepseek-chat",
      "elapsed_s": 7.76
    },
    {
      "id": "q61",
      "category": "single_domain",
      "question": "In the MB (Microbiology Specimen) domain, what is the MBTESTCD variable, what observation class is MB, and what is the codelist code for MBTESTCD?",
      "source_recall": 1.0,
      "source_hits": [
        "domains/MB/spec.md"
      ],
      "source_misses": [],
      "top5_sources": [
        "domains/MB/spec.md",
        "terminology/core/microbiology_part2.md",
        "domains/MB/assumptions.md",
        "domains/MB/examples.md",
        "VARIABLE_INDEX.md"
      ],
      "top5_similarities": [
        0.7379,
        0.5274,
        0.7557,
        0.6599,
        0.6529
      ],
      "fact_recall": 1.0,
      "fact_hits": [
        "Findings",
        "MBTESTCD",
        "C120527",
        "Topic"
      ],
      "fact_misses": [],
      "answer_preview": "Based on the provided context, here are the answers to your questions:\n\n**1. MBTESTCD Variable Definition**\n\n- **Label:** Microbiology Test or Finding Short Name\n- **Type:** Char\n- **Controlled Terms:** C120527\n- **Role:** Topic\n- **Core:** Required (Req)\n- **CDISC Notes:** The short name of the mea",
      "usage": {
        "prompt_tokens": 15914,
        "completion_tokens": 282,
        "total_tokens": 16196
      },
      "model": "deepseek/deepseek-chat",
      "elapsed_s": 2.97
    },
    {
      "id": "q62",
      "category": "single_domain",
      "question": "What is the SS (Subject Status) domain, what is the SSTESTCD variable, and what controlled terminology codelist does it use?",
      "source_recall": 1.0,
      "source_hits": [
        "domains/SS/spec.md"
      ],
      "source_misses": [],
      "top5_sources": [
        "domains/SS/spec.md",
        "terminology/core/other_part5.md",
        "VARIABLE_INDEX.md",
        "domains/SS/spec.md",
        "domains/SS/spec.md"
      ],
      "top5_similarities": [
        0.7493,
        0.5547,
        0.664,
        0.6925,
        0.6959
      ],
      "fact_recall": 1.0,
      "fact_hits": [
        "SSTESTCD",
        "C124305",
        "Findings",
        "Topic"
      ],
      "fact_misses": [],
      "answer_preview": "## SS (Subject Status) Domain\n\nThe Subject Status (SS) domain is a **Findings** class domain used to capture the state or condition of subjects, such as survival status or follow-up availability status. It records assessments about a subject's status at various timepoints during or after a study.\n\n#",
      "usage": {
        "prompt_tokens": 13679,
        "completion_tokens": 445,
        "total_tokens": 14124
      },
      "model": "deepseek/deepseek-chat",
      "elapsed_s": 4.54
    },
    {
      "id": "q63",
      "category": "single_domain",
      "question": "In the SC (Subject Characteristics) domain, what observation class is it and what is its dataset structure?",
      "source_recall": 1.0,
      "source_hits": [
        "domains/SC/spec.md"
      ],
      "source_misses": [],
      "top5_sources": [
        "domains/SC/spec.md",
        "domains/SC/assumptions.md",
        "domains/SC/examples.md",
        "domains/SC/assumptions.md",
        "chapters/ch08_relationships.md"
      ],
      "top5_similarities": [
        0.6075,
        0.625,
        0.612,
        0.522,
        0.4999
      ],
      "fact_recall": 1.0,
      "fact_hits": [
        "Findings",
        "one record per characteristic",
        "Subject Characteristics"
      ],
      "fact_misses": [],
      "answer_preview": "Based on the SDTMIG v3.4 knowledge base, the SC (Subject Characteristics) domain belongs to the **Findings** general observation class.\n\nIts dataset structure is **one record per characteristic per visit per subject**, as illustrated by:\n\n- **[Source: domains/SC/examples.md -- SC – Specification (p3",
      "usage": {
        "prompt_tokens": 15259,
        "completion_tokens": 249,
        "total_tokens": 15508
      },
      "model": "deepseek/deepseek-chat",
      "elapsed_s": 3.85
    },
    {
      "id": "q64",
      "category": "single_domain",
      "question": "What is the PC (Pharmacokinetics Concentrations) domain used for and what is the structure of one record in this dataset?",
      "source_recall": 1.0,
      "source_hits": [
        "domains/PC/spec.md"
      ],
      "source_misses": [],
      "top5_sources": [
        "domains/PC/spec.md",
        "domains/PC/assumptions.md",
        "chapters/ch08_relationships.md",
        "domains/PC/assumptions.md",
        "domains/PP/assumptions.md"
      ],
      "top5_similarities": [
        0.5528,
        0.7165,
        0.5937,
        0.5979,
        0.5663
      ],
      "fact_recall": 1.0,
      "fact_hits": [
        "Findings",
        "concentration",
        "analyte"
      ],
      "fact_misses": [],
      "answer_preview": "Based on the context, the Pharmacokinetics Concentrations (PC) domain is used to represent **pharmacokinetic concentration data**, specifically plasma (or other specimen) drug concentration as a function of time.\n\n### Domain Usage\nThe PC domain contains data on the concentration of a drug (analyte) ",
      "usage": {
        "prompt_tokens": 17142,
        "completion_tokens": 250,
        "total_tokens": 17392
      },
      "model": "deepseek/deepseek-chat",
      "elapsed_s": 3.09
    },
    {
      "id": "q65",
      "category": "single_domain",
      "question": "In the DA (Product Accountability) domain, what observation class does it belong to and what is the structure of the dataset?",
      "source_recall": 1.0,
      "source_hits": [
        "domains/DA/spec.md"
      ],
      "source_misses": [],
      "top5_sources": [
        "domains/DA/spec.md",
        "VARIABLE_INDEX.md",
        "chapters/ch08_relationships.md",
        "model/02_observation_classes.md",
        "domains/EC/assumptions.md"
      ],
      "top5_similarities": [
        0.5267,
        0.552,
        0.4883,
        0.5583,
        11.763
      ],
      "fact_recall": 0.6667,
      "fact_hits": [
        "Findings",
        "Product Accountability"
      ],
      "fact_misses": [
        "per subject"
      ],
      "answer_preview": "Based on the knowledge base, the DA (Product Accountability) domain belongs to the **Findings** observation class and has a structure of **one record per finding**.\n\n**Evidence:**\n\n- The VARIABLE_INDEX.md explicitly lists DA under the \"Findings\" class, with the label \"Product Accountability\" **[Sour",
      "usage": {
        "prompt_tokens": 14571,
        "completion_tokens": 244,
        "total_tokens": 14815
      },
      "model": "deepseek/deepseek-chat",
      "elapsed_s": 3.45
    },
    {
      "id": "q66",
      "category": "cross_domain",
      "question": "Which SDTM domains include the VISITNUM timing variable?",
      "source_recall": 1.0,
      "source_hits": [
        "VARIABLE_INDEX.md"
      ],
      "source_misses": [],
      "top5_sources": [
        "VARIABLE_INDEX.md",
        "domains/EX/assumptions.md",
        "chapters/ch04_general_assumptions.md",
        "domains/SU/assumptions.md",
        "model/01_concepts_and_terms.md"
      ],
      "top5_similarities": [
        0.5448,
        0.6769,
        0.6828,
        0.685,
        11.1925
      ],
      "fact_recall": 0.0,
      "fact_hits": [],
      "fact_misses": [
        "VISITNUM",
        "Visit Number",
        "LB",
        "VS"
      ],
      "answer_preview": "Based on the knowledge base, I can confirm **IC** stands for **Informed Consent**. It is used in SDTM as the prefix for the **Informed Consent** domain, which is a **Findings** domain.\n\nHowever, the knowledge base does not contain information about the \"IC\" domain as a separate standard domain. The ",
      "usage": {
        "prompt_tokens": 13996,
        "completion_tokens": 129,
        "total_tokens": 14125
      },
      "model": "deepseek/deepseek-chat",
      "elapsed_s": 2.63
    },
    {
      "id": "q67",
      "category": "cross_domain",
      "question": "Many SDTM variables use the No Yes Response codelist C66742. How many variables reference it and give some examples of AE seriousness variables that use it.",
      "source_recall": 1.0,
      "source_hits": [
        "VARIABLE_INDEX.md"
      ],
      "source_misses": [],
      "top5_sources": [
        "VARIABLE_INDEX.md",
        "domains/AE/spec.md",
        "terminology/core/general_part4.md",
        "domains/AE/examples.md",
        "chapters/ch04_general_assumptions.md"
      ],
      "top5_similarities": [
        0.4669,
        0.5381,
        0.6495,
        0.5542,
        0.5827
      ],
      "fact_recall": 1.0,
      "fact_hits": [
        "C66742",
        "AESER",
        "AESDTH"
      ],
      "fact_misses": [],
      "answer_preview": "Based on the provided context, I can answer your questions regarding the No Yes Response codelist (C66742).\n\n### How many variables reference C66742?\n\nThe context does not provide a complete count of all SDTM variables that reference the No Yes Response codelist (C66742). The provided excerpt from `",
      "usage": {
        "prompt_tokens": 15246,
        "completion_tokens": 464,
        "total_tokens": 15710
      },
      "model": "deepseek/deepseek-chat",
      "elapsed_s": 4.22
    },
    {
      "id": "q68",
      "category": "cross_domain",
      "question": "Which domains use the Completion Status codelist (C66789) for their --STAT variable, and what does --STAT indicate?",
      "source_recall": 1.0,
      "source_hits": [
        "VARIABLE_INDEX.md"
      ],
      "source_misses": [],
      "top5_sources": [
        "VARIABLE_INDEX.md",
        "terminology/core/general_part4.md",
        "domains/SS/spec.md",
        "domains/SC/spec.md",
        "domains/IS/spec.md"
      ],
      "top5_similarities": [
        0.5065,
        0.4661,
        0.685,
        0.6915,
        0.6622
      ],
      "fact_recall": 1.0,
      "fact_hits": [
        "C66789",
        "STAT",
        "Completion Status"
      ],
      "fact_misses": [],
      "answer_preview": "## Domains Using Completion Status Codelist (C66789) for `--STAT`\n\nBased on the retrieved context, the following domains use the Completion Status codelist (C66789) for their `--STAT` variable:\n\n### Findings Class Domains\n\n| Domain | Variable | Core | CDISC Notes |\n|--------|----------|------|------",
      "usage": {
        "prompt_tokens": 9495,
        "completion_tokens": 982,
        "total_tokens": 10477
      },
      "model": "deepseek/deepseek-chat",
      "elapsed_s": 6.88
    },
    {
      "id": "q69",
      "category": "cross_domain",
      "question": "The dose units codelist C71620 is shared across many Intervention and Findings domains. Which variables such as EXDOSU and CMDOSU reference it?",
      "source_recall": 1.0,
      "source_hits": [
        "VARIABLE_INDEX.md"
      ],
      "source_misses": [],
      "top5_sources": [
        "VARIABLE_INDEX.md",
        "terminology/core/general_part5.md",
        "domains/CM/spec.md",
        "domains/EX/spec.md",
        "domains/CM/spec.md"
      ],
      "top5_similarities": [
        0.5647,
        0.4805,
        0.7093,
        0.6827,
        0.6319
      ],
      "fact_recall": 1.0,
      "fact_hits": [
        "C71620",
        "EXDOSU",
        "CMDOSU"
      ],
      "fact_misses": [],
      "answer_preview": "Based on the retrieved context, the codelist C71620 is referenced by dose units variables across several Intervention domains. The following variables use this codelist:\n\n1. **EC (Exposure as Collected)**:\n   - **ECDOSU** — Dose Units (Variable Qualifier, Core: Exp) [Source: domains/EC/spec.md]\n\n2. ",
      "usage": {
        "prompt_tokens": 15091,
        "completion_tokens": 324,
        "total_tokens": 15415
      },
      "model": "deepseek/deepseek-chat",
      "elapsed_s": 3.61
    },
    {
      "id": "q70",
      "category": "cross_domain",
      "question": "How is the RELSUB (Related Subjects) dataset used to represent relationships between two subjects, and what does the RSUBJID variable hold?",
      "source_recall": 1.0,
      "source_hits": [
        "domains/RELSUB/spec.md"
      ],
      "source_misses": [],
      "top5_sources": [
        "domains/RELSUB/spec.md",
        "chapters/ch08_relationships.md",
        "domains/RELSUB/assumptions.md",
        "model/06_relationship_datasets.md",
        "domains/RELSUB/assumptions.md"
      ],
      "top5_similarities": [
        0.7436,
        0.7848,
        0.7269,
        0.7336,
        0.7736
      ],
      "fact_recall": 1.0,
      "fact_hits": [
        "RSUBJID",
        "USUBJID",
        "SREL"
      ],
      "fact_misses": [],
      "answer_preview": "Based on the provided context, the RELSUB (Related Subjects) dataset is used to represent directional relationships between study subjects. Here's how it works and what the RSUBJID variable holds:\n\n**Purpose and Structure:**\nRELSUB is a relationship dataset used to describe relationships between per",
      "usage": {
        "prompt_tokens": 14045,
        "completion_tokens": 767,
        "total_tokens": 14812
      },
      "model": "deepseek/deepseek-chat",
      "elapsed_s": 5.44
    },
    {
      "id": "q71",
      "category": "cross_domain",
      "question": "What is the EVAL (Evaluator) codelist C78735 and which domains' --EVAL variables share it?",
      "source_recall": 1.0,
      "source_hits": [
        "VARIABLE_INDEX.md"
      ],
      "source_misses": [],
      "top5_sources": [
        "VARIABLE_INDEX.md",
        "terminology/core/general_part2.md",
        "domains/CO/spec.md",
        "domains/TU/spec.md",
        "domains/CO/spec.md"
      ],
      "top5_similarities": [
        0.448,
        0.4083,
        0.6115,
        0.581,
        0.6168
      ],
      "fact_recall": 1.0,
      "fact_hits": [
        "C78735",
        "EVAL",
        "PE"
      ],
      "fact_misses": [],
      "answer_preview": "Based on the retrieved context, I can answer your question about the Evaluator codelist (C78735) and which domains' `--EVAL` variables use it.\n\n## C78735 — Evaluator Codelist\n\nUnfortunately, the retrieved context does not provide the **contents** of the Evaluator codelist C78735 itself. The terminol",
      "usage": {
        "prompt_tokens": 10054,
        "completion_tokens": 874,
        "total_tokens": 10928
      },
      "model": "deepseek/deepseek-chat",
      "elapsed_s": 7.57
    },
    {
      "id": "q72",
      "category": "cross_domain",
      "question": "How do the PC (Pharmacokinetics Concentrations) and PP (Pharmacokinetic Parameters) domains relate to each other, and why are they kept as two separate domains?",
      "source_recall": 1.0,
      "source_hits": [
        "chapters/ch08_relationships.md"
      ],
      "source_misses": [],
      "top5_sources": [
        "domains/PC/spec.md",
        "domains/PP/spec.md",
        "domains/PC/assumptions.md",
        "domains/PC/assumptions.md",
        "domains/PC/assumptions.md"
      ],
      "top5_similarities": [
        0.5578,
        0.5491,
        0.733,
        0.6403,
        0.5665
      ],
      "fact_recall": 1.0,
      "fact_hits": [
        "PC",
        "PP",
        "parameter"
      ],
      "fact_misses": [],
      "answer_preview": "# PC and PP Domain Relationship\n\n## Why They Are Separate Domains\n\nPC and PP are kept as two separate domains because they represent **different topics with different data structures**, as described in the SDTMIG guidance on forming new domains.\n\n**Key rationale:** The Pharmacokinetics domain requir",
      "usage": {
        "prompt_tokens": 16051,
        "completion_tokens": 1197,
        "total_tokens": 17248
      },
      "model": "deepseek/deepseek-chat",
      "elapsed_s": 9.07
    },
    {
      "id": "q73",
      "category": "cross_domain",
      "question": "Which special-purpose and relationship domains carry the RDOMAIN variable, and what does RDOMAIN identify?",
      "source_recall": 0.0,
      "source_hits": [],
      "source_misses": [
        "model/06_relationship_datasets.md"
      ],
      "top5_sources": [
        "VARIABLE_INDEX.md",
        "domains/RELREC/spec.md",
        "chapters/ch08_relationships.md",
        "domains/SUPPQUAL/spec.md",
        "domains/RELREC/assumptions.md"
      ],
      "top5_similarities": [
        0.4962,
        0.7528,
        17.7327,
        0.7491,
        16.2389
      ],
      "fact_recall": 0.6667,
      "fact_hits": [
        "RDOMAIN",
        "parent"
      ],
      "fact_misses": [
        "2-character"
      ],
      "answer_preview": "Based on the retrieved context, **four special-purpose and relationship domains** carry the **RDOMAIN** variable:\n\n1. **RELREC (Related Records)** – Relationship domain\n2. **SUPPQUAL (Supplemental Qualifiers)** – Relationship domain\n3. **CO (Comments)** – Special-purpose domain\n4. **RELSUB (Related ",
      "usage": {
        "prompt_tokens": 14150,
        "completion_tokens": 560,
        "total_tokens": 14710
      },
      "model": "deepseek/deepseek-chat",
      "elapsed_s": 5.26
    },
    {
      "id": "q74",
      "category": "cross_domain",
      "question": "How are Supplemental Qualifier datasets named per parent domain (for example for AE and CM), and what variable ties each SUPP-- record back to its parent domain?",
      "source_recall": 1.0,
      "source_hits": [
        "model/06_relationship_datasets.md"
      ],
      "source_misses": [],
      "top5_sources": [
        "domains/AE/spec.md",
        "domains/CM/spec.md",
        "model/06_relationship_datasets.md",
        "domains/SUPPQUAL/assumptions.md",
        "chapters/ch08_relationships.md"
      ],
      "top5_similarities": [
        0.4955,
        0.4615,
        0.8137,
        0.7436,
        0.7453
      ],
      "fact_recall": 1.0,
      "fact_hits": [
        "suppae",
        "RDOMAIN",
        "supp--"
      ],
      "fact_misses": [],
      "answer_preview": "## Naming and Parent Linkage of Supplemental Qualifier Datasets\n\n### Naming Convention\n\nSupplemental Qualifier datasets are named using the pattern **SUPP--** where \"--\" is replaced by the 2-character domain abbreviation of the parent domain **[Source: chapters/ch08_relationships.md, Section 8.4.2]*",
      "usage": {
        "prompt_tokens": 17655,
        "completion_tokens": 1114,
        "total_tokens": 18769
      },
      "model": "deepseek/deepseek-chat",
      "elapsed_s": 8.52
    },
    {
      "id": "q75",
      "category": "cross_domain",
      "question": "In SDTM, which identifier variables besides USUBJID can identify the source of a record across the general observation classes (for example for pooled or device data)?",
      "source_recall": 1.0,
      "source_hits": [
        "model/02_observation_classes.md"
      ],
      "source_misses": [],
      "top5_sources": [
        "model/02_observation_classes.md",
        "model/02_observation_classes.md",
        "domains/SUPPQUAL/spec.md",
        "model/01_concepts_and_terms.md",
        "domains/RELSUB/spec.md"
      ],
      "top5_similarities": [
        0.6708,
        0.6648,
        0.6786,
        21.0629,
        0.6767
      ],
      "fact_recall": 1.0,
      "fact_hits": [
        "USUBJID",
        "POOLID",
        "SPDEVID"
      ],
      "fact_misses": [],
      "answer_preview": "Based on the SDTM model, the identifier variables besides USUBJID that can identify the source of a record across the general observation classes are **POOLID** and **SPDEVID**.\n\n### Supporting Evidence\n\nEach general class domain must include at least one of the following subject identifiers: USUBJI",
      "usage": {
        "prompt_tokens": 14542,
        "completion_tokens": 536,
        "total_tokens": 15078
      },
      "model": "deepseek/deepseek-chat",
      "elapsed_s": 5.33
    },
    {
      "id": "q76",
      "category": "cross_domain",
      "question": "How do the AP (Associated Persons) domains link non-subject persons back to study subjects, and what role do RSUBJID and SREL play?",
      "source_recall": 1.0,
      "source_hits": [
        "model/04_associated_persons.md"
      ],
      "source_misses": [],
      "top5_sources": [
        "VARIABLE_INDEX.md",
        "model/06_relationship_datasets.md",
        "model/04_associated_persons.md",
        "chapters/ch08_relationships.md",
        "domains/RELSUB/assumptions.md"
      ],
      "top5_similarities": [
        0.5794,
        0.7014,
        0.6695,
        0.6671,
        0.6962
      ],
      "fact_recall": 0.6667,
      "fact_hits": [
        "RSUBJID",
        "SREL"
      ],
      "fact_misses": [
        "APID"
      ],
      "answer_preview": "The AP (Associated Persons) domains link non-subject persons back to study subjects through three linking variables: **RSUBJID**, **SREL**, and optionally **RDEVID**.\n\n**RSUBJID (Related Subject or Pool Identifier)** explicitly identifies the study subject(s) or pool to which an associated person is",
      "usage": {
        "prompt_tokens": 12509,
        "completion_tokens": 448,
        "total_tokens": 12957
      },
      "model": "deepseek/deepseek-chat",
      "elapsed_s": 3.75
    },
    {
      "id": "q77",
      "category": "cross_domain",
      "question": "The EPOCH timing variable appears in many domains. List several domains where EPOCH is used and state what kind of variable it is.",
      "source_recall": 1.0,
      "source_hits": [
        "VARIABLE_INDEX.md"
      ],
      "source_misses": [],
      "top5_sources": [
        "VARIABLE_INDEX.md",
        "domains/TA/assumptions.md",
        "chapters/ch04_general_assumptions.md",
        "domains/SR/spec.md",
        "domains/TE/examples.md"
      ],
      "top5_similarities": [
        0.4727,
        0.7118,
        0.6476,
        0.6753,
        13.9737
      ],
      "fact_recall": 0.75,
      "fact_hits": [
        "EPOCH",
        "Timing",
        "EX"
      ],
      "fact_misses": [
        "AE"
      ],
      "answer_preview": "Based on the provided context, the EPOCH variable is used in many domains, primarily as a **Timing** variable with the **Char** type and a **Perm** (Permissible) core, referencing controlled terminology code **C99079**.\n\nHere are several domains where EPOCH is used:\n\n- **EC (Exposure as Collected)**",
      "usage": {
        "prompt_tokens": 14210,
        "completion_tokens": 354,
        "total_tokens": 14564
      },
      "model": "deepseek/deepseek-chat",
      "elapsed_s": 3.53
    },
    {
      "id": "q78",
      "category": "concept",
      "question": "What are the rules for values of --TESTCD variables in SDTM? Describe the maximum length and which characters are allowed.",
      "source_recall": 1.0,
      "source_hits": [
        "chapters/ch04_general_assumptions.md"
      ],
      "source_misses": [],
      "top5_sources": [
        "chapters/ch04_general_assumptions.md",
        "chapters/ch04_general_assumptions.md",
        "chapters/ch04_general_assumptions.md",
        "domains/QS/assumptions.md",
        "domains/FT/assumptions.md"
      ],
      "top5_similarities": [
        0.6937,
        0.6892,
        0.615,
        0.5933,
        0.5933
      ],
      "fact_recall": 1.0,
      "fact_hits": [
        "8 characters",
        "cannot start with a number",
        "letters, numbers, or underscores"
      ],
      "fact_misses": [],
      "answer_preview": "## Rules for --TESTCD Variables in SDTM\n\n### Maximum Length\n\nValues of `--TESTCD` **must be limited to 8 characters**. This is explicitly stated in multiple places:\n\n> \"Values of --TESTCD must be limited to 8 characters\"  \n> **[Source: chapters/ch04_general_assumptions.md — §4.2.1 Variable-Naming Co",
      "usage": {
        "prompt_tokens": 11883,
        "completion_tokens": 771,
        "total_tokens": 12654
      },
      "model": "deepseek/deepseek-chat",
      "elapsed_s": 6.73
    },
    {
      "id": "q79",
      "category": "concept",
      "question": "How does SDTM represent a missing value, and what should be done when a test is not performed?",
      "source_recall": 1.0,
      "source_hits": [
        "chapters/ch04_general_assumptions.md"
      ],
      "source_misses": [],
      "top5_sources": [
        "chapters/ch04_general_assumptions.md",
        "chapters/ch04_general_assumptions.md",
        "chapters/ch04_general_assumptions.md",
        "terminology/core/other_part4.md",
        "terminology/supplementary/supplementary_part5.md"
      ],
      "top5_similarities": [
        0.6134,
        0.5564,
        0.5115,
        0.5714,
        0.5688
      ],
      "fact_recall": 1.0,
      "fact_hits": [
        "null",
        "NOT DONE",
        "STAT",
        "REASND"
      ],
      "fact_misses": [],
      "answer_preview": "Based on the context, here is how SDTM represents missing values and handles tests not performed.\n\n### Missing Values\n\nA missing value in SDTM is represented as a **null** value. No special placeholder text or codes like \"N/A\" or \"---\" are used to indicate a missing value. **[Source: chapters/ch04_g",
      "usage": {
        "prompt_tokens": 14487,
        "completion_tokens": 476,
        "total_tokens": 14963
      },
      "model": "deepseek/deepseek-chat",
      "elapsed_s": 5.48
    },
    {
      "id": "q80",
      "category": "concept",
      "question": "What is the convention for using 'Yes' and 'No' values in SDTM variables, and when is it acceptable to populate only one value?",
      "source_recall": 1.0,
      "source_hits": [
        "chapters/ch04_general_assumptions.md"
      ],
      "source_misses": [],
      "top5_sources": [
        "chapters/ch04_general_assumptions.md",
        "chapters/ch04_general_assumptions.md",
        "chapters/ch04_general_assumptions.md",
        "chapters/ch04_general_assumptions.md",
        "chapters/ch03_submitting_data.md"
      ],
      "top5_similarities": [
        0.6584,
        0.5395,
        0.5168,
        0.4937,
        0.5223
      ],
      "fact_recall": 1.0,
      "fact_hits": [
        "Yes",
        "No",
        "single checkbox"
      ],
      "fact_misses": [],
      "answer_preview": "## Convention for Using \"Yes\" and \"No\" Values in SDTM\n\nThe SDTMIG defines clear conventions for variables with controlled terminology of \"Y\" (Yes) and \"N\" (No), as described in Chapter 4.3.7.\n\n### General Rule\n\nVariables where the response is \"Yes\" or \"No\" (\"Y\" or \"N\") **should normally be populated",
      "usage": {
        "prompt_tokens": 17132,
        "completion_tokens": 876,
        "total_tokens": 18008
      },
      "model": "deepseek/deepseek-chat",
      "elapsed_s": 7.45
    },
    {
      "id": "q81",
      "category": "concept",
      "question": "What rules govern the two-character DOMAIN code in SDTM? What characters are allowed for the first and second characters?",
      "source_recall": 1.0,
      "source_hits": [
        "chapters/ch04_general_assumptions.md"
      ],
      "source_misses": [],
      "top5_sources": [
        "chapters/ch04_general_assumptions.md",
        "domains/TM/spec.md",
        "chapters/ch04_general_assumptions.md",
        "domains/DA/spec.md",
        "chapters/ch04_general_assumptions.md"
      ],
      "top5_similarities": [
        0.7129,
        0.6583,
        14.2372,
        0.6435,
        12.8348
      ],
      "fact_recall": 1.0,
      "fact_hits": [
        "2-character",
        "A-Z",
        "0-9"
      ],
      "fact_misses": [],
      "answer_preview": "Based on the provided context, the following rules govern the two-character DOMAIN code in SDTM:\n\n## Rules for the Two-Character DOMAIN Code\n\n1. **Uniqueness and Function**: Each domain is distinguished by a unique, 2-character code (DOMAIN) used in 4 ways:\n   - As the dataset name\n   - As the value",
      "usage": {
        "prompt_tokens": 12946,
        "completion_tokens": 488,
        "total_tokens": 13434
      },
      "model": "deepseek/deepseek-chat",
      "elapsed_s": 4.18
    },
    {
      "id": "q82",
      "category": "concept",
      "question": "Which identifier variables are required in all domains based on the three general observation classes, and which subject-level identifier must each include?",
      "source_recall": 1.0,
      "source_hits": [
        "model/02_observation_classes.md"
      ],
      "source_misses": [],
      "top5_sources": [
        "model/02_observation_classes.md",
        "chapters/ch04_general_assumptions.md",
        "model/02_observation_classes.md",
        "chapters/ch04_general_assumptions.md",
        "domains/DM/assumptions.md"
      ],
      "top5_similarities": [
        0.7071,
        0.6441,
        0.6224,
        0.5653,
        0.5557
      ],
      "fact_recall": 1.0,
      "fact_hits": [
        "STUDYID",
        "DOMAIN",
        "SEQ",
        "USUBJID"
      ],
      "fact_misses": [],
      "answer_preview": "Based on the provided context, three identifier variables are required in all domains based on the three general observation classes, and each must include at least one of three subject-level identifiers.\n\n### Required Identifier Variables\n\nAll domains based on the three general observation classes ",
      "usage": {
        "prompt_tokens": 13733,
        "completion_tokens": 456,
        "total_tokens": 14189
      },
      "model": "deepseek/deepseek-chat",
      "elapsed_s": 4.05
    },
    {
      "id": "q83",
      "category": "concept",
      "question": "What is RELREC and how is it used to relate records or datasets to one another in SDTM? What does the RDOMAIN variable do in RELREC?",
      "source_recall": 1.0,
      "source_hits": [
        "model/06_relationship_datasets.md"
      ],
      "source_misses": [],
      "top5_sources": [
        "domains/RELREC/spec.md",
        "domains/RELREC/assumptions.md",
        "chapters/ch08_relationships.md",
        "chapters/ch08_relationships.md",
        "model/06_relationship_datasets.md"
      ],
      "top5_similarities": [
        0.6849,
        0.7576,
        0.7786,
        0.7543,
        0.6968
      ],
      "fact_recall": 1.0,
      "fact_hits": [
        "RELREC",
        "RDOMAIN",
        "Identifier"
      ],
      "fact_misses": [],
      "answer_preview": "# RELREC: Related Records Dataset in SDTM\n\n## Overview\n\n**RELREC** (Related Records) is a special-purpose relationship dataset in SDTM used to describe relationships between records for a subject (peer records) and relationships between datasets. Each record in RELREC defines one endpoint of a relat",
      "usage": {
        "prompt_tokens": 15889,
        "completion_tokens": 1018,
        "total_tokens": 16907
      },
      "model": "deepseek/deepseek-chat",
      "elapsed_s": 8.76
    },
    {
      "id": "q84",
      "category": "concept",
      "question": "When deciding whether data belong to the Events, Interventions, or Findings observation class, what is the definition of an intervention versus an event?",
      "source_recall": 1.0,
      "source_hits": [
        "chapters/ch08_relationships.md"
      ],
      "source_misses": [],
      "top5_sources": [
        "chapters/ch08_relationships.md",
        "chapters/ch08_relationships.md",
        "chapters/ch04_general_assumptions.md",
        "domains/FA/assumptions.md",
        "domains/FA/assumptions.md"
      ],
      "top5_similarities": [
        0.6892,
        0.6095,
        0.5137,
        0.6076,
        0.5521
      ],
      "fact_recall": 1.0,
      "fact_hits": [
        "intervention",
        "event",
        "physiological effect"
      ],
      "fact_misses": [],
      "answer_preview": "Based on the SDTMIG v3.4 knowledge base, the distinction between an **Intervention** and an **Event** is defined as follows:\n\n- **An Intervention** is something that is done **to** a subject (possibly by the subject) that is expected to have a physiological effect. This concept of intended effect ma",
      "usage": {
        "prompt_tokens": 14302,
        "completion_tokens": 465,
        "total_tokens": 14767
      },
      "model": "deepseek/deepseek-chat",
      "elapsed_s": 4.84
    },
    {
      "id": "q85",
      "category": "concept",
      "question": "What are Associated Persons in SDTM, and how are AP domains named relative to the standard domain codes?",
      "source_recall": 1.0,
      "source_hits": [
        "model/04_associated_persons.md"
      ],
      "source_misses": [],
      "top5_sources": [
        "model/04_associated_persons.md",
        "chapters/ch04_general_assumptions.md",
        "chapters/ch01_introduction.md",
        "model/01_concepts_and_terms.md",
        "chapters/ch02_fundamentals.md"
      ],
      "top5_similarities": [
        0.7784,
        0.5731,
        0.5322,
        0.5676,
        0.5432
      ],
      "fact_recall": 1.0,
      "fact_hits": [
        "Associated Persons",
        "AP",
        "APDM"
      ],
      "fact_misses": [],
      "answer_preview": "## Associated Persons in SDTM\n\n### What Are Associated Persons?\n\nAssociated Persons (AP) are individuals other than study subjects who can be associated with a study, a particular study subject, or a device used in the study. **[Source: model/04_associated_persons.md]**\n\nThe structures of AP dataset",
      "usage": {
        "prompt_tokens": 14998,
        "completion_tokens": 568,
        "total_tokens": 15566
      },
      "model": "deepseek/deepseek-chat",
      "elapsed_s": 5.45
    },
    {
      "id": "q86",
      "category": "concept",
      "question": "What is an Expected (Exp) Core variable in SDTM, and what must be done in the Define-XML when a study does not collect the data item for an Expected variable?",
      "source_recall": 1.0,
      "source_hits": [
        "chapters/ch04_general_assumptions.md"
      ],
      "source_misses": [],
      "top5_sources": [
        "chapters/ch04_general_assumptions.md",
        "chapters/ch04_general_assumptions.md",
        "model/01_concepts_and_terms.md",
        "chapters/ch03_submitting_data.md",
        "domains/AE/assumptions.md"
      ],
      "top5_similarities": [
        0.7307,
        0.5805,
        0.5625,
        0.5376,
        0.492
      ],
      "fact_recall": 1.0,
      "fact_hits": [
        "Expected",
        "null",
        "Define-XML"
      ],
      "fact_misses": [],
      "answer_preview": "Based on the provided context, an **Expected (Exp)** variable is one of three SDTM Core designations (along with Required and Permissible).\n\n### Definition\n\nAn Expected variable is any variable necessary to make a record useful in the context of a specific domain. **[Source: chapters/ch04_general_as",
      "usage": {
        "prompt_tokens": 15747,
        "completion_tokens": 280,
        "total_tokens": 16027
      },
      "model": "deepseek/deepseek-chat",
      "elapsed_s": 4.72
    },
    {
      "id": "q87",
      "category": "concept",
      "question": "How does SDTM decide whether assessments of an event should be stored as Supplemental Qualifiers versus in the Findings About (FA) domain?",
      "source_recall": 1.0,
      "source_hits": [
        "chapters/ch08_relationships.md"
      ],
      "source_misses": [],
      "top5_sources": [
        "domains/FA/spec.md",
        "domains/FA/assumptions.md",
        "chapters/ch08_relationships.md",
        "chapters/ch02_fundamentals.md",
        "model/02_observation_classes.md"
      ],
      "top5_similarities": [
        0.5036,
        0.7222,
        0.6814,
        0.6963,
        0.643
      ],
      "fact_recall": 1.0,
      "fact_hits": [
        "Findings About",
        "supplemental qualifier",
        "event"
      ],
      "fact_misses": [],
      "answer_preview": "## Distinguishing Supplemental Qualifiers from Findings About (FA)\n\nThe decision between storing assessments as Supplemental Qualifiers (SUPP--) versus in the Findings About (FA) domain is governed by a clear criterion in the SDTMIG:\n\n### **Primary Rule: Single Variable vs. Multi-Variable Representa",
      "usage": {
        "prompt_tokens": 18251,
        "completion_tokens": 877,
        "total_tokens": 19128
      },
      "model": "deepseek/deepseek-chat",
      "elapsed_s": 8.34
    },
    {
      "id": "q88",
      "category": "concept",
      "question": "What distinguishes ETCD, TSPARMCD, and ARMCD from --TESTCD with respect to character restrictions and maximum lengths in SDTM?",
      "source_recall": 1.0,
      "source_hits": [
        "chapters/ch04_general_assumptions.md"
      ],
      "source_misses": [],
      "top5_sources": [
        "domains/DM/spec.md",
        "chapters/ch04_general_assumptions.md",
        "domains/TA/spec.md",
        "domains/TS/spec.md",
        "domains/DM/spec.md"
      ],
      "top5_similarities": [
        0.6434,
        0.6025,
        0.6254,
        0.6624,
        0.6089
      ],
      "fact_recall": 1.0,
      "fact_hits": [
        "ETCD",
        "TSPARMCD",
        "ARMCD",
        "20 characters"
      ],
      "fact_misses": [],
      "answer_preview": "Based on the context provided, the key distinction between ETCD, TSPARMCD, ARMCD, and --TESTCD lies in their character restrictions and maximum lengths:\n\n- **--TESTCD** (Findings domains): Limited to **8 characters** and **cannot** start with a number or contain characters other than letters, number",
      "usage": {
        "prompt_tokens": 11366,
        "completion_tokens": 467,
        "total_tokens": 11833
      },
      "model": "deepseek/deepseek-chat",
      "elapsed_s": 4.56
    },
    {
      "id": "q89",
      "category": "concept",
      "question": "What are the timing variables grouped under Relative Timing in SDTM (such as --STRF, --ENRF, --STRTPT, --ENRTPT) and what kinds of values do they take?",
      "source_recall": 1.0,
      "source_hits": [
        "model/02_observation_classes.md",
        "chapters/ch04_general_assumptions.md"
      ],
      "source_misses": [],
      "top5_sources": [
        "chapters/ch04_general_assumptions.md",
        "model/02_observation_classes.md",
        "domains/SV/assumptions.md",
        "chapters/ch04_general_assumptions.md",
        "domains/SU/spec.md"
      ],
      "top5_similarities": [
        0.713,
        0.638,
        0.6002,
        0.6249,
        0.5948
      ],
      "fact_recall": 1.0,
      "fact_hits": [
        "STRF",
        "ENRF",
        "STRTPT",
        "BEFORE"
      ],
      "fact_misses": [],
      "answer_preview": "Based on the SDTM knowledge base, the Relative Timing variables are a group of timing variables that describe the temporal relationship of an observation relative to either a **sponsor-defined reference period** or a **specific reference time point**. They are defined in the model's Timing Variables",
      "usage": {
        "prompt_tokens": 13834,
        "completion_tokens": 1140,
        "total_tokens": 14974
      },
      "model": "deepseek/deepseek-chat",
      "elapsed_s": 8.52
    },
    {
      "id": "q90",
      "category": "mixed",
      "question": "In the EX (Exposure) domain, what is the EXROUTE variable and its controlled terminology codelist code, and list some parenteral route-of-administration values from that codelist (for example routes administered under the skin or into a muscle).",
      "source_recall": 1.0,
      "source_hits": [
        "domains/EX/spec.md",
        "terminology/core/interventions.md"
      ],
      "source_misses": [],
      "top5_sources": [
        "domains/EX/spec.md",
        "terminology/core/interventions.md",
        "domains/EX/examples.md",
        "domains/EX/assumptions.md",
        "domains/EX/spec.md"
      ],
      "top5_similarities": [
        0.6862,
        0.4971,
        0.5685,
        0.5878,
        0.631
      ],
      "fact_recall": 1.0,
      "fact_hits": [
        "EXROUTE",
        "C66729",
        "SUBCUTANEOUS",
        "INTRAMUSCULAR"
      ],
      "fact_misses": [],
      "answer_preview": "Based on the retrieved context, here is the detailed specification for the **EXROUTE** variable and its associated controlled terminology, including examples of parenteral routes.\n\n### EXROUTE Variable Definition\n\n- **Label:** Route of Administration\n- **Type:** Char\n- **Role:** Variable Qualifier\n-",
      "usage": {
        "prompt_tokens": 13903,
        "completion_tokens": 441,
        "total_tokens": 14344
      },
      "model": "deepseek/deepseek-chat",
      "elapsed_s": 4.93
    },
    {
      "id": "q91",
      "category": "mixed",
      "question": "In the DS (Disposition) domain, which codelist does DSDECOD use for disposition events, and what are some reason-for-non-completion values from that codelist (for example a subject-initiated withdrawal or a physician's decision)?",
      "source_recall": 1.0,
      "source_hits": [
        "domains/DS/spec.md",
        "terminology/core/disposition.md"
      ],
      "source_misses": [],
      "top5_sources": [
        "domains/DS/spec.md",
        "terminology/core/disposition.md",
        "domains/DS/assumptions.md",
        "domains/DS/assumptions.md",
        "domains/DS/spec.md"
      ],
      "top5_similarities": [
        0.7472,
        0.6083,
        0.7319,
        0.6143,
        0.6825
      ],
      "fact_recall": 1.0,
      "fact_hits": [
        "DSDECOD",
        "C66727",
        "WITHDRAWAL BY SUBJECT",
        "PHYSICIAN DECISION"
      ],
      "fact_misses": [],
      "answer_preview": "Based on the SDTMIG v3.4 knowledge base, DSDECOD (Standardized Disposition Term) uses three codelists depending on the value of DSCAT.\n\nFor disposition events, when **DSCAT** = `\"DISPOSITION EVENT\"`, **DSDECOD** uses the **Completion/Reason for Non-Completion** codelist (**C66727**). This codelist i",
      "usage": {
        "prompt_tokens": 14562,
        "completion_tokens": 593,
        "total_tokens": 15155
      },
      "model": "deepseek/deepseek-chat",
      "elapsed_s": 5.32
    },
    {
      "id": "q92",
      "category": "mixed",
      "question": "What is the ETHNIC variable in the DM domain, what controlled terminology codelist code does it use, and what are its permitted values?",
      "source_recall": 1.0,
      "source_hits": [
        "domains/DM/spec.md",
        "terminology/core/dm.md"
      ],
      "source_misses": [],
      "top5_sources": [
        "domains/DM/spec.md",
        "terminology/core/dm.md",
        "domains/DM/spec.md",
        "domains/DM/assumptions.md",
        "chapters/ch04_general_assumptions.md"
      ],
      "top5_similarities": [
        0.6371,
        0.522,
        0.5401,
        0.5725,
        0.5587
      ],
      "fact_recall": 1.0,
      "fact_hits": [
        "ETHNIC",
        "C66790",
        "HISPANIC OR LATINO"
      ],
      "fact_misses": [],
      "answer_preview": "Based on the provided context, the `ETHNIC` variable in the DM domain is defined as follows:\n\n**Variable Definition for ETHNIC**:\n- **Label:** Ethnicity\n- **Type:** Char\n- **Role:** Record Qualifier\n- **Core:** Perm\n- **Controlled Terms:** C66790\n\n**[Source: domains/DM/spec.md -- ETHNIC]**\n\nThe cont",
      "usage": {
        "prompt_tokens": 15580,
        "completion_tokens": 269,
        "total_tokens": 15849
      },
      "model": "deepseek/deepseek-chat",
      "elapsed_s": 3.13
    },
    {
      "id": "q93",
      "category": "mixed",
      "question": "In the EX domain, what is the EXDOSFRM (Dose Form) variable and its controlled terminology codelist code, and give some dose-form values from that codelist (for example a solid oral shell form or a sterile parenteral form)?",
      "source_recall": 1.0,
      "source_hits": [
        "domains/EX/spec.md",
        "terminology/core/interventions.md"
      ],
      "source_misses": [],
      "top5_sources": [
        "domains/EX/spec.md",
        "terminology/core/interventions.md",
        "domains/EC/spec.md",
        "domains/CM/spec.md",
        "domains/ML/spec.md"
      ],
      "top5_similarities": [
        0.7833,
        0.4203,
        0.7138,
        0.6844,
        0.6295
      ],
      "fact_recall": 1.0,
      "fact_hits": [
        "EXDOSFRM",
        "C66726",
        "CAPSULE",
        "INJECTION"
      ],
      "fact_misses": [],
      "answer_preview": "Based on the retrieved context, here is the definition and controlled terminology for the `EXDOSFRM` variable in the EX domain, along with a list of permissible values.\n\n### Variable Definition\n\n- **Label:** Dose Form\n- **Type:** Char\n- **Role:** Variable Qualifier\n- **Core:** Exp (Expected)\n- **Con",
      "usage": {
        "prompt_tokens": 11334,
        "completion_tokens": 332,
        "total_tokens": 11666
      },
      "model": "deepseek/deepseek-chat",
      "elapsed_s": 3.91
    },
    {
      "id": "q94",
      "category": "mixed",
      "question": "How does the LB domain distinguish the original result LBORRES from the standardized result LBSTRESC, what codelist does LBSTRESC reference, and what are some of the standard result values in that codelist (for example for positive/negative findings)?",
      "source_recall": 1.0,
      "source_hits": [
        "domains/LB/spec.md",
        "terminology/core/lb_part4.md"
      ],
      "source_misses": [],
      "top5_sources": [
        "domains/LB/spec.md",
        "terminology/core/lb_part4.md",
        "domains/LB/examples.md",
        "domains/LB/spec.md",
        "domains/LB/examples.md"
      ],
      "top5_similarities": [
        0.7761,
        0.569,
        0.6411,
        0.6766,
        0.6406
      ],
      "fact_recall": 1.0,
      "fact_hits": [
        "LBORRES",
        "LBSTRESC",
        "C102580",
        "NEGATIVE",
        "POSITIVE"
      ],
      "fact_misses": [],
      "answer_preview": "Based on the retrieved context, here is the distinction between LBORRES and LBSTRESC, the codelist for LBSTRESC, and examples of standard result values:\n\n## Distinction Between LBORRES and LBSTRESC\n\nThe SDTM provides a 3-level result framework for Findings domains, as described in Chapter 4.5.1 of t",
      "usage": {
        "prompt_tokens": 14685,
        "completion_tokens": 630,
        "total_tokens": 15315
      },
      "model": "deepseek/deepseek-chat",
      "elapsed_s": 5.35
    },
    {
      "id": "q95",
      "category": "mixed",
      "question": "In the DD (Death Details) domain, what is the DDTEST variable and its controlled terminology codelist code, and what are some of the test names defined in that codelist (for example relating to cause of death or age at death)?",
      "source_recall": 1.0,
      "source_hits": [
        "domains/DD/spec.md",
        "terminology/core/other_part4.md"
      ],
      "source_misses": [],
      "top5_sources": [
        "domains/DD/spec.md",
        "terminology/core/other_part4.md",
        "domains/DD/spec.md",
        "terminology/core/other_part4.md",
        "VARIABLE_INDEX.md"
      ],
      "top5_similarities": [
        0.7643,
        0.6729,
        0.7509,
        0.6619,
        0.6722
      ],
      "fact_recall": 1.0,
      "fact_hits": [
        "DDTEST",
        "C116107",
        "Primary Cause of Death",
        "Age at Death"
      ],
      "fact_misses": [],
      "answer_preview": "Based on the SDTM knowledge base, the **DDTEST** variable and its associated controlled terminology are as follows:\n\n### DDTEST Variable Definition\n- **Label:** Death Detail Assessment Name\n- **Type:** Char\n- **Role:** Synonym Qualifier\n- **Core:** Req\n- **Controlled Terms:** C116107\n- **CDISC Notes",
      "usage": {
        "prompt_tokens": 11807,
        "completion_tokens": 469,
        "total_tokens": 12276
      },
      "model": "deepseek/deepseek-chat",
      "elapsed_s": 4.16
    },
    {
      "id": "q96",
      "category": "mixed",
      "question": "In the FA (Findings About) domain, what is the FATEST variable and its controlled terminology codelist code, and give some example test names from that codelist (such as Diameter or Cumulative Exposure)?",
      "source_recall": 1.0,
      "source_hits": [
        "domains/FA/spec.md",
        "terminology/core/findings_about.md"
      ],
      "source_misses": [],
      "top5_sources": [
        "domains/FA/spec.md",
        "terminology/core/findings_about.md",
        "domains/FA/assumptions.md",
        "model/02_observation_classes.md",
        "domains/FA/spec.md"
      ],
      "top5_similarities": [
        0.7232,
        0.487,
        0.7102,
        0.5997,
        0.6545
      ],
      "fact_recall": 1.0,
      "fact_hits": [
        "FATEST",
        "C101833",
        "Diameter",
        "Cumulative Exposure"
      ],
      "fact_misses": [],
      "answer_preview": "Based on the retrieved context, here is the information regarding the FATEST variable in the Findings About (FA) domain:\n\n### FATEST Variable Definition\n\n- **Label:** Findings About Test Name **[Source: domains/FA/spec.md]**\n- **Type:** Char **[Source: domains/FA/spec.md]**\n- **Role:** Synonym Quali",
      "usage": {
        "prompt_tokens": 17521,
        "completion_tokens": 463,
        "total_tokens": 17984
      },
      "model": "deepseek/deepseek-chat",
      "elapsed_s": 4.48
    },
    {
      "id": "q97",
      "category": "mixed",
      "question": "In the SS (Subject Status) domain, what is the SSSTRESC variable, what controlled terminology codelist does it use, and what are the standard subject-status result values in that codelist (such as for a living versus deceased subject)?",
      "source_recall": 1.0,
      "source_hits": [
        "domains/SS/spec.md",
        "terminology/core/other_part5.md"
      ],
      "source_misses": [],
      "top5_sources": [
        "domains/SS/spec.md",
        "terminology/core/other_part5.md",
        "VARIABLE_INDEX.md",
        "terminology/core/other_part5.md",
        "domains/SS/assumptions.md"
      ],
      "top5_similarities": [
        0.7309,
        0.5847,
        0.6764,
        0.5747,
        0.5833
      ],
      "fact_recall": 1.0,
      "fact_hits": [
        "SSSTRESC",
        "C124304",
        "ALIVE",
        "DEAD"
      ],
      "fact_misses": [],
      "answer_preview": "Based on the retrieved context, here is the definition for the **SSSTRESC** variable in the Subject Status (SS) domain, along with its controlled terminology and values.\n\n### Variable Definition: SSSTRESC\n\n- **Label:** Character Result/Finding in Std Format\n- **Type:** Char\n- **Role:** Result Qualif",
      "usage": {
        "prompt_tokens": 12350,
        "completion_tokens": 592,
        "total_tokens": 12942
      },
      "model": "deepseek/deepseek-chat",
      "elapsed_s": 6.28
    },
    {
      "id": "q98",
      "category": "mixed",
      "question": "In the CM (Concomitant Medications) domain, what is the CMDOSU (Dose Units) variable, what controlled terminology codelist does it use, and give some unit values from that codelist (for example an international unit or a milliequivalent)?",
      "source_recall": 1.0,
      "source_hits": [
        "domains/CM/spec.md",
        "terminology/core/general_part5.md"
      ],
      "source_misses": [],
      "top5_sources": [
        "domains/CM/spec.md",
        "terminology/core/general_part5.md",
        "domains/CM/assumptions.md",
        "VARIABLE_INDEX.md",
        "domains/LB/assumptions.md"
      ],
      "top5_similarities": [
        0.7977,
        0.5497,
        0.6795,
        0.6301,
        21.1024
      ],
      "fact_recall": 1.0,
      "fact_hits": [
        "CMDOSU",
        "C71620",
        "IU",
        "mEq"
      ],
      "fact_misses": [],
      "answer_preview": "Based on the provided context, here is the detailed specification for the `CMDOSU` variable:\n\n### Variable Definition: CMDOSU\n\n- **Domain:** CM (Concomitant/Prior Medications)\n- **Label:** Dose Units\n- **Type:** Char\n- **Role:** Variable Qualifier\n- **Core:** Perm\n- **CDISC Notes:** Units for CMDOSE",
      "usage": {
        "prompt_tokens": 13128,
        "completion_tokens": 570,
        "total_tokens": 13698
      },
      "model": "deepseek/deepseek-chat",
      "elapsed_s": 6.02
    },
    {
      "id": "q99",
      "category": "mixed",
      "question": "In the QS (Questionnaires) domain, what is the QSCAT variable used for, what controlled terminology codelist does it reference, and give some example questionnaire short names from that codelist.",
      "source_recall": 1.0,
      "source_hits": [
        "domains/QS/spec.md",
        "terminology/core/qs_part1.md"
      ],
      "source_misses": [],
      "top5_sources": [
        "domains/QS/spec.md",
        "terminology/core/qs_part1.md",
        "domains/SUPPQUAL/examples.md",
        "domains/FT/assumptions.md",
        "domains/QS/assumptions.md"
      ],
      "top5_similarities": [
        0.785,
        0.5381,
        0.6848,
        0.701,
        0.701
      ],
      "fact_recall": 0.5,
      "fact_hits": [
        "QSCAT",
        "C100129"
      ],
      "fact_misses": [
        "ACQ",
        "ACT"
      ],
      "answer_preview": "Based on the SDTMIG v3.4 knowledge base, here is the detailed information about the QSCAT variable in the QS domain:\n\n- **Purpose:** QSCAT is used to specify the name of the questionnaire in which a particular question (identified by QSTEST and QSTESTCD) was included. For example, \"ADAS-COG\" or \"MDS",
      "usage": {
        "prompt_tokens": 13827,
        "completion_tokens": 359,
        "total_tokens": 14186
      },
      "model": "deepseek/deepseek-chat",
      "elapsed_s": 3.78
    },
    {
      "id": "q100",
      "category": "single_domain",
      "question": "In the TA (Trial Arms) domain, what is the ARMCD variable's role and Core designation, and what is the ETCD variable used for?",
      "source_recall": 1.0,
      "source_hits": [
        "domains/TA/spec.md"
      ],
      "source_misses": [],
      "top5_sources": [
        "domains/TA/spec.md",
        "domains/DM/assumptions.md",
        "domains/TA/examples.md",
        "domains/DM/examples.md",
        "domains/DM/spec.md"
      ],
      "top5_similarities": [
        0.6516,
        0.6754,
        0.6209,
        0.6491,
        0.6861
      ],
      "fact_recall": 1.0,
      "fact_hits": [
        "ARMCD",
        "Topic",
        "ETCD",
        "Element Code"
      ],
      "fact_misses": [],
      "answer_preview": "Based on the provided context, I can answer the question about ARMCD in the TA domain, but the context does not provide sufficient information about the ETCD variable in the TA domain.\n\n## ARMCD in the Trial Arms (TA) Domain\n\n**Role:** Topic - **[Source: domains/TA/spec.md]**\n\n**Core:** Req (Require",
      "usage": {
        "prompt_tokens": 16770,
        "completion_tokens": 422,
        "total_tokens": 17192
      },
      "model": "deepseek/deepseek-chat",
      "elapsed_s": 4.74
    },
    {
      "id": "q101",
      "category": "mixed",
      "question": "What is the TSPARM variable in the TS domain, what is its controlled terminology codelist code, and give some example trial summary parameter names defined in that codelist.",
      "source_recall": 1.0,
      "source_hits": [
        "domains/TS/spec.md",
        "terminology/core/trial_design.md"
      ],
      "source_misses": [],
      "top5_sources": [
        "domains/TS/spec.md",
        "terminology/core/trial_design.md",
        "domains/TS/assumptions.md",
        "VARIABLE_INDEX.md",
        "domains/TS/spec.md"
      ],
      "top5_similarities": [
        0.7454,
        0.464,
        0.6272,
        0.6342,
        0.6961
      ],
      "fact_recall": 0.5,
      "fact_hits": [
        "TSPARM",
        "C67152"
      ],
      "fact_misses": [
        "Actual Number of Subjects",
        "Clinical Study Sponsor"
      ],
      "answer_preview": "Based on the retrieved context, here is the definition and details for the `TSPARM` variable in the TS domain.\n\n**Definition**\n\n`TSPARM` (Trial Summary Parameter) is a character variable with the role of **Synonym Qualifier** and a Core requirement of **Required** (Req). It stores the descriptive na",
      "usage": {
        "prompt_tokens": 11137,
        "completion_tokens": 462,
        "total_tokens": 11599
      },
      "model": "deepseek/deepseek-chat",
      "elapsed_s": 4.79
    },
    {
      "id": "q102",
      "category": "mixed",
      "question": "In the VS (Vital Signs) domain, what is the VSPOS variable, what controlled terminology codelist does it use, and list some subject-position values from that codelist (for example a face-down position or a semi-sitting bed position)?",
      "source_recall": 1.0,
      "source_hits": [
        "domains/VS/spec.md",
        "terminology/core/interventions.md"
      ],
      "source_misses": [],
      "top5_sources": [
        "domains/VS/spec.md",
        "terminology/core/interventions.md",
        "domains/VS/spec.md",
        "VARIABLE_INDEX.md",
        "domains/CV/spec.md"
      ],
      "top5_similarities": [
        0.756,
        0.5398,
        0.6601,
        0.5644,
        0.6317
      ],
      "fact_recall": 1.0,
      "fact_hits": [
        "VSPOS",
        "C71148",
        "PRONE",
        "FOWLERS"
      ],
      "fact_misses": [],
      "answer_preview": "Based on the SDTM knowledge base, here is the information about the **VSPOS** variable:\n\n### Variable Definition\n\n**VSPOS — Vital Signs Position of Subject**\n- **Label:** Vital Signs Position of Subject\n- **Type:** Char\n- **Role:** Record Qualifier\n- **Core:** Perm\n- **CDISC Notes:** Position of the",
      "usage": {
        "prompt_tokens": 11003,
        "completion_tokens": 412,
        "total_tokens": 11415
      },
      "model": "deepseek/deepseek-chat",
      "elapsed_s": 4.06
    }
  ],
  "tag": "full_on"
}