{
  "summary": {
    "n_questions": 102,
    "model": "deepseek/deepseek-chat",
    "threshold": 0.85,
    "source_recall_avg": 0.9902,
    "source_recall_by_category": {
      "concept": 1.0,
      "cross_domain": 0.96,
      "mixed": 1.0,
      "single_domain": 1.0
    },
    "fact_recall_avg": 0.9518,
    "fact_recall_by_category": {
      "concept": 0.9733,
      "cross_domain": 0.9267,
      "mixed": 0.95,
      "single_domain": 0.9568
    },
    "overall": 0.971,
    "total_tokens": 1499892,
    "verdict": "PASS",
    "top_k": 15,
    "structured_lookup": true,
    "hybrid": {
      "fusion": "rrf",
      "alpha": null
    }
  },
  "results": [
    {
      "id": "q01",
      "category": "single_domain",
      "question": "What is AETERM and what are its variable attributes in the AE domain?",
      "source_recall": 1.0,
      "source_hits": [
        "domains/AE/spec.md"
      ],
      "source_misses": [],
      "top5_sources": [
        "domains/AE/spec.md",
        "domains/AE/spec.md",
        "domains/AE/spec.md",
        "domains/AE/spec.md",
        "domains/AE/assumptions.md"
      ],
      "top5_similarities": [
        0.5884,
        0.5778,
        0.5484,
        0.5477,
        0.6641
      ],
      "fact_recall": 1.0,
      "fact_hits": [
        "Topic",
        "Char",
        "Req",
        "Verbatim"
      ],
      "fact_misses": [],
      "answer_preview": "## AETERM — Reported Term for the Adverse Event\n\n**AETERM** is the topic variable for the AE (Adverse Events) domain. It captures the verbatim name of the adverse event as reported by the investigator or subject.\n\n### Variable Attributes\n\n| Attribute | Value |\n|-----------|-------|\n| **Order** | 9 |\n| **Label** | Reported Term for the Adverse Event |\n| **Type** | Char |\n| **Controlled Terms** | (none — free text) |\n| **Role** | Topic |\n| **Core** | Req |\n| **CDISC Notes** | Verbatim name of the event. |\n\n**[Source: domains/AE/spec.md — AETERM]**\n\n### Key Business Rules\n\n1. **Required variable*",
      "usage": {
        "prompt_tokens": 13519,
        "completion_tokens": 433,
        "total_tokens": 13952
      },
      "model": "deepseek/deepseek-chat",
      "elapsed_s": 5.05
    },
    {
      "id": "q02",
      "category": "single_domain",
      "question": "What are the required (Core=Req) variables in the DM domain?",
      "source_recall": 1.0,
      "source_hits": [
        "domains/DM/spec.md"
      ],
      "source_misses": [],
      "top5_sources": [
        "domains/DM/spec.md",
        "domains/DM/spec.md",
        "domains/DM/spec.md",
        "domains/DM/spec.md",
        "chapters/ch04_general_assumptions.md"
      ],
      "top5_similarities": [
        0.4813,
        0.4255,
        0.4052,
        0.404,
        0.5064
      ],
      "fact_recall": 0.6667,
      "fact_hits": [
        "STUDYID",
        "USUBJID",
        "SEX",
        "ARM"
      ],
      "fact_misses": [
        "RFSTDTC",
        "AGE"
      ],
      "answer_preview": "Based on the DM domain specification, the required (Core=Req) variables in the Demographics (DM) domain are:\n\n| Variable | Label | Type | Role | Core |\n|----------|-------|------|------|------|\n| STUDYID | Study Identifier | Char | Identifier | Req |\n| DOMAIN | Domain Abbreviation | Char | Identifier | Req |\n| USUBJID | Unique Subject Identifier | Char | Identifier | Req |\n| SUBJID | Subject Identifier for the Study | Char | Topic | Req |\n| SITEID | Study Site Identifier | Char | Record Qualifier | Req |\n| BRTHDTC | Date/Time of Birth | Char | Timing | Req |\n| SEX | Sex | Char | Synonym Qualif",
      "usage": {
        "prompt_tokens": 13311,
        "completion_tokens": 467,
        "total_tokens": 13778
      },
      "model": "deepseek/deepseek-chat",
      "elapsed_s": 4.75
    },
    {
      "id": "q03",
      "category": "single_domain",
      "question": "What are the key assumptions for adverse event data collection and coding?",
      "source_recall": 1.0,
      "source_hits": [
        "domains/AE/assumptions.md"
      ],
      "source_misses": [],
      "top5_sources": [
        "domains/AE/assumptions.md",
        "domains/FA/examples.md",
        "domains/AE/assumptions.md",
        "domains/AE/assumptions.md",
        "domains/AE/assumptions.md"
      ],
      "top5_similarities": [
        0.5919,
        0.5041,
        0.5608,
        0.5755,
        0.5716
      ],
      "fact_recall": 1.0,
      "fact_hits": [
        "AETERM",
        "MedDRA",
        "AEDECOD"
      ],
      "fact_misses": [],
      "answer_preview": "# Key Assumptions for Adverse Event Data Collection and Coding\n\nBased on the SDTMIG v3.4 knowledge base, here are the key assumptions for adverse event (AE) data collection and coding:\n\n## 1. AE Definition and Scope\n\nThe Adverse Events dataset includes clinical data describing \"any untoward medical occurrence in a patient or clinical investigation subject administered a pharmaceutical product and which does not necessarily have to have a causal relationship with this treatment\" (ICH E2A). Sponsors may extend or limit the scope of AE collection in consultation with regulatory authorities (e.g.,",
      "usage": {
        "prompt_tokens": 15979,
        "completion_tokens": 1247,
        "total_tokens": 17226
      },
      "model": "deepseek/deepseek-chat",
      "elapsed_s": 9.98
    },
    {
      "id": "q04",
      "category": "single_domain",
      "question": "What is the purpose of the TV (Trial Visits) domain and what variables does it contain?",
      "source_recall": 1.0,
      "source_hits": [
        "domains/TV/spec.md"
      ],
      "source_misses": [],
      "top5_sources": [
        "domains/TV/spec.md",
        "domains/TV/spec.md",
        "domains/TV/spec.md",
        "domains/TV/spec.md",
        "domains/SV/assumptions.md"
      ],
      "top5_similarities": [
        0.5894,
        0.4733,
        0.4706,
        0.47,
        0.6873
      ],
      "fact_recall": 1.0,
      "fact_hits": [
        "VISITNUM",
        "VISIT"
      ],
      "fact_misses": [],
      "answer_preview": "## TV (Trial Visits) Domain — Purpose and Variables\n\n### Purpose\n\nThe TV (Trial Visits) domain describes the **protocol-defined planned schedule of subject encounters** at the healthcare facility where the study is being conducted. It provides the planned scheduling of visits to which a subject's actual visits (recorded in SV) can be compared. **[Source: domains/TV/assumptions.md — overview]**\n\nVisits are defined as \"clinical encounters\" and are described using timing variables. The term \"visit\" reflects the fact that data in outpatient studies is usually collected during a physical visit by t",
      "usage": {
        "prompt_tokens": 13809,
        "completion_tokens": 843,
        "total_tokens": 14652
      },
      "model": "deepseek/deepseek-chat",
      "elapsed_s": 7.12
    },
    {
      "id": "q05",
      "category": "single_domain",
      "question": "In the PE (Physical Examination) domain, what is the structure of the dataset, what is the role of the PETESTCD variable, and what value should PETESTCD have when the results of the entire physical examination are represented in one record?",
      "source_recall": 1.0,
      "source_hits": [
        "domains/PE/spec.md"
      ],
      "source_misses": [],
      "top5_sources": [
        "domains/PE/spec.md",
        "domains/PE/spec.md",
        "domains/PE/spec.md",
        "domains/PE/spec.md",
        "VARIABLE_INDEX.md"
      ],
      "top5_similarities": [
        0.731,
        0.7026,
        0.5645,
        0.5643,
        0.6909
      ],
      "fact_recall": 1.0,
      "fact_hits": [
        "PETESTCD",
        "Topic",
        "PHYSEXAM"
      ],
      "fact_misses": [],
      "answer_preview": "Based on the retrieved context, here is the answer to your question:\n\n### Dataset Structure\n\nThe PE (Physical Examination) domain is a **Findings** class domain. The dataset structure is \"One record per body system examined per subject per visit\" (implied by the examples and variable roles). Each record represents the finding for a specific body system (e.g., Head, Skin) or the entire examination.\n\n### Role of PETESTCD\n\n**PETESTCD** (Body System Examined Short Name) has the role of **Topic** and is **Required** (Core: Req). It serves as the topic variable for the domain, identifying the specif",
      "usage": {
        "prompt_tokens": 16457,
        "completion_tokens": 231,
        "total_tokens": 16688
      },
      "model": "deepseek/deepseek-chat",
      "elapsed_s": 3.26
    },
    {
      "id": "q21",
      "category": "single_domain",
      "question": "What is the LBTESTCD variable in the LB (Laboratory Test Results) domain? Describe its role, controlled terminology codelist code, and naming constraints.",
      "source_recall": 1.0,
      "source_hits": [
        "domains/LB/spec.md"
      ],
      "source_misses": [],
      "top5_sources": [
        "domains/LB/spec.md",
        "terminology/core/lb_part2.md",
        "domains/LB/spec.md",
        "domains/LB/assumptions.md",
        "domains/LB/examples.md"
      ],
      "top5_similarities": [
        0.7837,
        0.5222,
        0.7118,
        0.7499,
        0.6639
      ],
      "fact_recall": 1.0,
      "fact_hits": [
        "Topic",
        "C65047",
        "8 characters"
      ],
      "fact_misses": [],
      "answer_preview": "## LBTESTCD — Lab Test or Examination Short Name\n\nBased on the SDTMIG v3.4 knowledge base, here is the complete specification for LBTESTCD in the LB domain:\n\n### Variable Definition\n\n| Attribute | Value |\n|-----------|-------|\n| **Label** | Lab Test or Examination Short Name |\n| **Type** | Char |\n| **Role** | Topic |\n| **Core** | Required |\n| **Controlled Terms** | C65047 (Laboratory Test Code) |\n\n**[Source: domains/LB/spec.md — LBTESTCD]**\n\n### CDISC Notes\n\nLBTESTCD is the short name of the measurement, test, or examination described in LBTEST. It can be used as a column name when converting ",
      "usage": {
        "prompt_tokens": 15443,
        "completion_tokens": 697,
        "total_tokens": 16140
      },
      "model": "deepseek/deepseek-chat",
      "elapsed_s": 6.67
    },
    {
      "id": "q22",
      "category": "single_domain",
      "question": "What is the VS (Vital Signs) domain and what are some examples of VSTESTCD values? Include the codelist code.",
      "source_recall": 1.0,
      "source_hits": [
        "domains/VS/spec.md"
      ],
      "source_misses": [],
      "top5_sources": [
        "domains/VS/spec.md",
        "terminology/core/vs.md",
        "domains/VS/spec.md",
        "VARIABLE_INDEX.md",
        "domains/VS/assumptions.md"
      ],
      "top5_similarities": [
        0.7384,
        0.5465,
        0.6467,
        0.6305,
        0.6914
      ],
      "fact_recall": 1.0,
      "fact_hits": [
        "Findings",
        "VSTESTCD",
        "C66741"
      ],
      "fact_misses": [],
      "answer_preview": "## VS (Vital Signs) Domain\n\nThe VS domain is a **Findings** class domain used to represent vital signs measurements collected during a clinical trial, such as blood pressure, heart rate, temperature, and body mass index. It is one of the standard safety domains typically included in regulatory submissions alongside DM, EX, CM, AE, DS, MH, and LB **[Source: chapters/ch03_submitting_data.md]**.\n\n## VSTESTCD — Vital Signs Test Short Name\n\n**Variable Definition:**\n- **Label:** Vital Signs Test Short Name\n- **Type:** Char\n- **Role:** Topic\n- **Core:** Req\n- **Controlled Terms:** C66741\n- **CDISC No",
      "usage": {
        "prompt_tokens": 13722,
        "completion_tokens": 745,
        "total_tokens": 14467
      },
      "model": "deepseek/deepseek-chat",
      "elapsed_s": 6.35
    },
    {
      "id": "q23",
      "category": "single_domain",
      "question": "In the CM (Concomitant Medications) domain, what is the CMTRT variable and what observation class does CM belong to?",
      "source_recall": 1.0,
      "source_hits": [
        "domains/CM/spec.md"
      ],
      "source_misses": [],
      "top5_sources": [
        "domains/CM/spec.md",
        "domains/CM/spec.md",
        "domains/CM/spec.md",
        "domains/CM/spec.md",
        "domains/CM/assumptions.md"
      ],
      "top5_similarities": [
        0.6736,
        0.6034,
        0.5926,
        0.5843,
        0.6595
      ],
      "fact_recall": 1.0,
      "fact_hits": [
        "CMTRT",
        "Interventions",
        "Topic",
        "Req"
      ],
      "fact_misses": [],
      "answer_preview": "Based on the retrieved context, here is the answer to your question:\n\n**CMTRT Variable Definition**\n\n- **Label:** Reported Name of Drug, Med, or Therapy\n- **Type:** Char\n- **Role:** Topic\n- **Core:** Req (Required)\n- **Controlled Terms:** None\n- **CDISC Notes:** Verbatim medication name that is either preprinted or collected on a CRF. **[Source: domains/CM/spec.md]**\n\nCMTRT is the topic variable for the CM domain. It captures the verbatim name of the concomitant medication or therapy and must always have a value. It should only contain the medication/therapy name and should not include dosage,",
      "usage": {
        "prompt_tokens": 14133,
        "completion_tokens": 245,
        "total_tokens": 14378
      },
      "model": "deepseek/deepseek-chat",
      "elapsed_s": 3.0
    },
    {
      "id": "q24",
      "category": "single_domain",
      "question": "What is the EX (Exposure) domain used for and what is the Topic variable EXTRT?",
      "source_recall": 1.0,
      "source_hits": [
        "domains/EX/spec.md"
      ],
      "source_misses": [],
      "top5_sources": [
        "domains/EX/spec.md",
        "domains/EX/spec.md",
        "domains/EX/spec.md",
        "domains/EX/spec.md",
        "domains/EX/assumptions.md"
      ],
      "top5_similarities": [
        0.5483,
        0.5451,
        0.5409,
        0.537,
        0.6559
      ],
      "fact_recall": 1.0,
      "fact_hits": [
        "EXTRT",
        "Interventions",
        "protocol-specified"
      ],
      "fact_misses": [],
      "answer_preview": "## EX (Exposure) Domain — Purpose and Topic Variable\n\n### Domain Purpose\n\nThe EX (Exposure) domain represents **protocol-specified study treatment administrations** and is used to capture exposure to investigational products, active comparators, and placebo. Key characteristics:\n\n- **Required** for all studies that include protocol-specified study treatment **[Source: domains/EX/assumptions.md item_1b]**\n- Contains **derived data** — EXDOSU reflects the protocol-specified unit per study treatment, derived from collected data points (e.g., number of tablets, total volume infused) combined with ",
      "usage": {
        "prompt_tokens": 13251,
        "completion_tokens": 638,
        "total_tokens": 13889
      },
      "model": "deepseek/deepseek-chat",
      "elapsed_s": 6.29
    },
    {
      "id": "q25",
      "category": "single_domain",
      "question": "In the MH (Medical History) domain, what is the role of MHTERM and what assumptions guide medical history data collection?",
      "source_recall": 1.0,
      "source_hits": [
        "domains/MH/assumptions.md"
      ],
      "source_misses": [],
      "top5_sources": [
        "domains/MH/spec.md",
        "domains/MH/spec.md",
        "domains/MH/spec.md",
        "domains/MH/spec.md",
        "domains/MH/assumptions.md"
      ],
      "top5_similarities": [
        0.6764,
        0.6118,
        0.5939,
        0.5859,
        0.7369
      ],
      "fact_recall": 1.0,
      "fact_hits": [
        "MHTERM",
        "Topic",
        "Verbatim"
      ],
      "fact_misses": [],
      "answer_preview": "Based on the provided context, here is the role of MHTERM and the assumptions guiding medical history data collection in the MH domain.\n\n### Role of MHTERM\n\n- **Label:** Reported Term for the Medical History\n- **Type:** Char\n- **Role:** Topic\n- **Core:** Req\n- **Controlled Terms:** None\n- **CDISC Notes:** Verbatim or preprinted CRF term for the medical condition or event.\n\n**[Source: domains/MH/spec.md]**\n\n### Assumptions Guiding Medical History Data Collection\n\n1.  **MH Description and Coding:**\n    - **MHTERM** is the required Topic variable capturing the verbatim or prespecified term for th",
      "usage": {
        "prompt_tokens": 14033,
        "completion_tokens": 601,
        "total_tokens": 14634
      },
      "model": "deepseek/deepseek-chat",
      "elapsed_s": 5.38
    },
    {
      "id": "q26",
      "category": "single_domain",
      "question": "Describe the EG (ECG Test Results) domain structure and the EGTESTCD variable, including its controlled terminology codelist codes.",
      "source_recall": 1.0,
      "source_hits": [
        "domains/EG/spec.md"
      ],
      "source_misses": [],
      "top5_sources": [
        "domains/EG/spec.md",
        "terminology/core/eg_part3.md",
        "terminology/core/eg_part2.md",
        "domains/EG/spec.md",
        "VARIABLE_INDEX.md"
      ],
      "top5_similarities": [
        0.7263,
        0.5879,
        0.5242,
        0.7253,
        0.6737
      ],
      "fact_recall": 1.0,
      "fact_hits": [
        "EGTESTCD",
        "Findings",
        "C71153"
      ],
      "fact_misses": [],
      "answer_preview": "## EG (ECG Test Results) Domain Structure\n\nThe EG domain is a **Findings** class domain used to represent electrocardiogram (ECG) test results, measurements, and interpretations collected during a clinical trial. It captures both standard 10-second ECG data and Holter monitoring data.\n\n### Domain Structure\n\nThe EG domain contains the following variable categories:\n\n**Identifier Variables:**\n- `EGSEQ` (Sequence Number, Num, Identifier, Req)\n- `EGGRPID` (Group ID, Char, Identifier, Perm)\n- `EGREFID` (ECG Reference ID, Char, Identifier, Perm)\n- `EGSPID` (Sponsor-Defined Identifier, Char, Identifi",
      "usage": {
        "prompt_tokens": 15940,
        "completion_tokens": 2021,
        "total_tokens": 17961
      },
      "model": "deepseek/deepseek-chat",
      "elapsed_s": 13.47
    },
    {
      "id": "q27",
      "category": "single_domain",
      "question": "What is the IE (Inclusion/Exclusion) domain and what is the role and maximum length of the IETEST variable?",
      "source_recall": 1.0,
      "source_hits": [
        "domains/IE/spec.md"
      ],
      "source_misses": [],
      "top5_sources": [
        "domains/IE/spec.md",
        "domains/IE/spec.md",
        "domains/IE/spec.md",
        "domains/IE/spec.md",
        "domains/TI/spec.md"
      ],
      "top5_similarities": [
        0.6769,
        0.607,
        0.5335,
        0.5254,
        0.7161
      ],
      "fact_recall": 1.0,
      "fact_hits": [
        "IETEST",
        "200",
        "Synonym Qualifier"
      ],
      "fact_misses": [],
      "answer_preview": "## IE Domain Overview\n\nThe **IE (Inclusion/Exclusion Criteria Not Met)** domain is a **Findings** class domain used to collect responses to only those inclusion/exclusion criteria that a subject **did not meet** — not responses to all criteria. For the complete list of all inclusion/exclusion criteria, refer to the **TI (Trial Inclusion/Exclusion Criteria)** domain. **[Source: domains/IE/assumptions.md — item_1]**\n\n---\n\n## IETEST Variable Definition\n\n| Attribute | Value |\n|-----------|-------|\n| **Label** | Inclusion/Exclusion Criterion |\n| **Type** | Char |\n| **Role** | Synonym Qualifier |\n| ",
      "usage": {
        "prompt_tokens": 9432,
        "completion_tokens": 364,
        "total_tokens": 9796
      },
      "model": "deepseek/deepseek-chat",
      "elapsed_s": 4.17
    },
    {
      "id": "q06",
      "category": "cross_domain",
      "question": "What is SUPPQUAL and when should supplemental qualifiers be used instead of adding variables to a domain?",
      "source_recall": 1.0,
      "source_hits": [
        "domains/SUPPQUAL/spec.md"
      ],
      "source_misses": [],
      "top5_sources": [
        "domains/SUPPQUAL/spec.md",
        "domains/SUPPQUAL/spec.md",
        "domains/SUPPQUAL/spec.md",
        "domains/SUPPQUAL/spec.md",
        "domains/SUPPQUAL/assumptions.md"
      ],
      "top5_similarities": [
        0.5533,
        0.4872,
        0.4705,
        0.4564,
        0.7409
      ],
      "fact_recall": 1.0,
      "fact_hits": [
        "QNAM",
        "QVAL",
        "non-standard"
      ],
      "fact_misses": [],
      "answer_preview": "## SUPPQUAL — Supplemental Qualifiers Dataset\n\n**SUPPQUAL** (Supplemental Qualifiers for [domain name]) is a special-purpose relationship dataset model used to capture **non-standard variables (NSVs)** that cannot be accommodated in the standard SDTM domain datasets. It is structured as one record per supplemental qualifier per related parent domain record(s). **[Source: model/06_relationship_datasets.md]**\n\n### Key Characteristics\n\n| Aspect | Detail |\n|--------|--------|\n| **Purpose** | Capture sponsor-defined variables not in the standard SDTM model |\n| **Structure** | One record per NSV/val",
      "usage": {
        "prompt_tokens": 15317,
        "completion_tokens": 1144,
        "total_tokens": 16461
      },
      "model": "deepseek/deepseek-chat",
      "elapsed_s": 9.62
    },
    {
      "id": "q07",
      "category": "cross_domain",
      "question": "Which SDTM domains use the EPOCH variable and what is its purpose?",
      "source_recall": 1.0,
      "source_hits": [
        "VARIABLE_INDEX.md"
      ],
      "source_misses": [],
      "top5_sources": [
        "VARIABLE_INDEX.md",
        "chapters/ch04_general_assumptions.md",
        "model/01_concepts_and_terms.md",
        "domains/SR/spec.md",
        "chapters/ch02_fundamentals.md"
      ],
      "top5_similarities": [
        0.5124,
        0.7004,
        11.8134,
        0.6837,
        11.0386
      ],
      "fact_recall": 1.0,
      "fact_hits": [
        "EPOCH",
        "Timing"
      ],
      "fact_misses": [],
      "answer_preview": "## EPOCH Variable — Usage Across SDTM Domains\n\n### Variable Definition\n\n| Attribute | Value |\n|-----------|-------|\n| **Label** | Epoch |\n| **Type** | Char |\n| **Role** | Timing |\n| **Core** | Perm |\n| **Controlled Terms** | C99079 (e.g., \"SCREENING\", \"TREATMENT\", \"FOLLOW-UP\") |\n\n**[Source: domains/SR/spec.md — EPOCH]**\n\n### Purpose\n\nEPOCH represents the study design epoch associated with an observation. It is a **study-design construct** that groups observations into predefined periods of the clinical trial (e.g., Screening, Treatment, Follow-up). EPOCH values must be distinct for different e",
      "usage": {
        "prompt_tokens": 14154,
        "completion_tokens": 1124,
        "total_tokens": 15278
      },
      "model": "deepseek/deepseek-chat",
      "elapsed_s": 9.21
    },
    {
      "id": "q08",
      "category": "cross_domain",
      "question": "How does USUBJID serve as a linking key across SDTM domains?",
      "source_recall": 1.0,
      "source_hits": [
        "domains/DM/spec.md"
      ],
      "source_misses": [],
      "top5_sources": [
        "VARIABLE_INDEX.md",
        "domains/SUPPQUAL/spec.md",
        "chapters/ch04_general_assumptions.md",
        "domains/DM/spec.md",
        "chapters/ch03_submitting_data.md"
      ],
      "top5_similarities": [
        0.4878,
        0.7075,
        10.4468,
        0.6923,
        9.9812
      ],
      "fact_recall": 1.0,
      "fact_hits": [
        "USUBJID",
        "Identifier",
        "unique"
      ],
      "fact_misses": [],
      "answer_preview": "Based on the provided context, **USUBJID (Unique Subject Identifier)** serves as the primary linking key across SDTM domains by acting as a universal **Identifier** variable that is required in nearly all subject-level datasets.\n\nHere is how it functions as a linking key:\n\n1.  **Universal Identifier Role**: USUBJID is defined with the **Role: Identifier** and **Core: Req** (Required) in virtually all subject-level domains, including Demographics (DM), Adverse Events (AE), Comments (CO), Pharmacokinetics Parameters (PP), and Relationship datasets like RELSPEC and RELSUB. **[Source: domains/DM/s",
      "usage": {
        "prompt_tokens": 13649,
        "completion_tokens": 735,
        "total_tokens": 14384
      },
      "model": "deepseek/deepseek-chat",
      "elapsed_s": 7.89
    },
    {
      "id": "q09",
      "category": "cross_domain",
      "question": "How are adverse events linked to concomitant medications using RELREC?",
      "source_recall": 1.0,
      "source_hits": [
        "domains/RELREC/spec.md"
      ],
      "source_misses": [],
      "top5_sources": [
        "domains/RELREC/spec.md",
        "domains/AE/spec.md",
        "chapters/ch08_relationships.md",
        "domains/RELREC/examples.md",
        "domains/RELREC/assumptions.md"
      ],
      "top5_similarities": [
        0.4612,
        0.5185,
        0.6173,
        0.583,
        0.5376
      ],
      "fact_recall": 1.0,
      "fact_hits": [
        "RELREC",
        "IDVAR",
        "IDVARVAL"
      ],
      "fact_misses": [],
      "answer_preview": "## Linking Adverse Events to Concomitant Medications via RELREC\n\nAdverse events (AE) are linked to concomitant medications (CM) using the **Related Records (RELREC)** special-purpose dataset. This mechanism is used when a non-study treatment was given because of the occurrence of an adverse event.\n\n### Mechanism\n\n1. **AECONTRT indicator**: The AE domain includes the variable `AECONTRT` (Concomitant or Additional Treatment Given), a Permissible Y/N variable. When `AECONTRT = \"Y\"`, it indicates another treatment was given due to the AE. **[Source: domains/AE/spec.md — AECONTRT]**\n\n2. **RELREC li",
      "usage": {
        "prompt_tokens": 16000,
        "completion_tokens": 794,
        "total_tokens": 16794
      },
      "model": "deepseek/deepseek-chat",
      "elapsed_s": 7.14
    },
    {
      "id": "q10",
      "category": "cross_domain",
      "question": "In oncology studies, how are the TR (Tumor/Lesion Results) domain and RS (Disease Response) domain linked together, and which specific identifier variables are used for each linkage direction?",
      "source_recall": 1.0,
      "source_hits": [
        "domains/TR/assumptions.md",
        "domains/TR/spec.md"
      ],
      "source_misses": [],
      "top5_sources": [
        "domains/TR/spec.md",
        "domains/RS/spec.md",
        "domains/RS/assumptions.md",
        "domains/TR/assumptions.md",
        "domains/TR/assumptions.md"
      ],
      "top5_similarities": [
        0.6207,
        0.6214,
        0.713,
        0.7055,
        0.6926
      ],
      "fact_recall": 1.0,
      "fact_hits": [
        "TRLNKID",
        "TRLNKGRP"
      ],
      "fact_misses": [],
      "answer_preview": "## TR–RS Linkage in Oncology Studies\n\nThe TR (Tumor/Lesion Results) and RS (Disease Response) domains are linked using **RELREC relationship records**, with the **`--LNKGRP`** variable serving as the linking identifier on both sides.\n\n### Linkage Mechanism\n\nThe relationship is established through a **dataset-to-dataset RELREC relationship**, using the `--LNKGRP` variable as the grouping identifier. This approach was chosen because the standard ID variables (`--GRPID`, `--REFID`, `--SPID`) may already be used for other purposes within each domain. **[Source: domains/TR/assumptions.md — item_2]*",
      "usage": {
        "prompt_tokens": 14741,
        "completion_tokens": 736,
        "total_tokens": 15477
      },
      "model": "deepseek/deepseek-chat",
      "elapsed_s": 7.17
    },
    {
      "id": "q28",
      "category": "cross_domain",
      "question": "What is the FA (Findings About Events or Interventions) domain and how does it link to parent domains like AE or CM using FAOBJ?",
      "source_recall": 1.0,
      "source_hits": [
        "domains/FA/spec.md"
      ],
      "source_misses": [],
      "top5_sources": [
        "VARIABLE_INDEX.md",
        "domains/FA/spec.md",
        "domains/AE/spec.md",
        "domains/CM/spec.md",
        "domains/FA/assumptions.md"
      ],
      "top5_similarities": [
        0.5985,
        0.5917,
        0.6388,
        0.4692,
        0.6937
      ],
      "fact_recall": 1.0,
      "fact_hits": [
        "Findings About",
        "FAOBJ",
        "FATESTCD"
      ],
      "fact_misses": [],
      "answer_preview": "## FA (Findings About Events or Interventions) Domain\n\nThe FA domain is a **Findings About** subtype of the Findings Observation Class, designed to represent findings that are about events or interventions, rather than the events or interventions themselves. **[Source: model/02_observation_classes.md]**\n\n### Key Characteristics\n\n- **Structure:** One record per finding\n- **Class:** Findings About (subtype of Findings)\n- **Purpose:** Record findings about events or interventions that have different timing from the parent record, require multiple variables for representation, or indicate occurren",
      "usage": {
        "prompt_tokens": 16370,
        "completion_tokens": 1038,
        "total_tokens": 17408
      },
      "model": "deepseek/deepseek-chat",
      "elapsed_s": 8.82
    },
    {
      "id": "q29",
      "category": "cross_domain",
      "question": "How do the four Trial Design domains TA (Trial Arms), TE (Trial Elements), TV (Trial Visits), and TI (Trial Inclusion/Exclusion) work together to define a study design?",
      "source_recall": 1.0,
      "source_hits": [
        "domains/TA/assumptions.md",
        "domains/TE/assumptions.md"
      ],
      "source_misses": [],
      "top5_sources": [
        "domains/TA/spec.md",
        "domains/TE/spec.md",
        "domains/TV/spec.md",
        "domains/TE/assumptions.md",
        "domains/TA/assumptions.md"
      ],
      "top5_similarities": [
        0.7568,
        0.7352,
        0.7534,
        0.7359,
        0.7245
      ],
      "fact_recall": 1.0,
      "fact_hits": [
        "TA",
        "TE",
        "TV",
        "TI"
      ],
      "fact_misses": [],
      "answer_preview": "# How TA, TE, TV, and TI Work Together to Define a Study Design\n\nThe four Trial Design domains form a **hierarchical, interconnected model** that describes a clinical trial's planned conduct. Here's how they relate:\n\n## 1. TE (Trial Elements) — The Building Blocks\n\nTE defines the **fundamental time intervals** (elements) that compose a trial. Each element represents a discrete period serving a specific purpose (e.g., Screening, Run-In, Treatment, Follow-up).\n\n- **Structure:** One record per unique element\n- **Key variables:** `ETCD` (Element Code), `ELEMENT` (Description), `TESTRL` (Start Rule",
      "usage": {
        "prompt_tokens": 14191,
        "completion_tokens": 1159,
        "total_tokens": 15350
      },
      "model": "deepseek/deepseek-chat",
      "elapsed_s": 11.64
    },
    {
      "id": "q30",
      "category": "cross_domain",
      "question": "What is the CO (Comments) domain and how does it reference records in other SDTM domains? Describe the RDOMAIN and IDVAR mechanism.",
      "source_recall": 1.0,
      "source_hits": [
        "domains/CO/spec.md",
        "domains/CO/assumptions.md"
      ],
      "source_misses": [],
      "top5_sources": [
        "VARIABLE_INDEX.md",
        "domains/CO/spec.md",
        "chapters/ch08_relationships.md",
        "domains/CO/assumptions.md",
        "domains/CO/assumptions.md"
      ],
      "top5_similarities": [
        0.569,
        0.6492,
        0.6728,
        0.6876,
        0.7154
      ],
      "fact_recall": 1.0,
      "fact_hits": [
        "COVAL",
        "RDOMAIN",
        "IDVAR"
      ],
      "fact_misses": [],
      "answer_preview": "## CO (Comments) Domain Overview\n\nThe Comments (CO) domain is a **special-purpose domain** used to capture unstructured free-text comments that are not part of normal domain data. Comments are normally supplied by a principal investigator but may also be collected from other sources such as central reviewers. **[Source: model/03_special_purpose_domains.md]**\n\n### Structure\n- **One record per comment per subject** (or per study)\n- **15 variables** in the full model, with the core specification including: STUDYID, DOMAIN, RDOMAIN, USUBJID, COSEQ, IDVAR, IDVARVAL, COREF, COVAL, COEVAL, COEVALID, ",
      "usage": {
        "prompt_tokens": 14752,
        "completion_tokens": 1414,
        "total_tokens": 16166
      },
      "model": "deepseek/deepseek-chat",
      "elapsed_s": 10.56
    },
    {
      "id": "q31",
      "category": "cross_domain",
      "question": "How are the EC (Exposure as Collected) and EX (Exposure) domains different in purpose, and when should each be used?",
      "source_recall": 1.0,
      "source_hits": [
        "domains/EC/assumptions.md"
      ],
      "source_misses": [],
      "top5_sources": [
        "domains/EC/spec.md",
        "domains/EX/spec.md",
        "domains/EX/assumptions.md",
        "domains/EC/assumptions.md",
        "domains/EX/assumptions.md"
      ],
      "top5_similarities": [
        0.5814,
        0.5962,
        0.7328,
        0.7317,
        0.5907
      ],
      "fact_recall": 1.0,
      "fact_hits": [
        "collected",
        "EX",
        "EC"
      ],
      "fact_misses": [],
      "answer_preview": "## EC vs EX: Purpose and Usage\n\n### Core Distinction\n\n**EC (Exposure as Collected)** represents protocol-specified study treatment administrations **as they are actually collected** from the source (e.g., CRF, diary, device). The unit and format reflect the raw collection method.\n\n**EX (Exposure)** represents study treatment administrations **in the protocol-specified unit**, typically as a **derived dataset** suitable for analysis.\n\n**[Source: domains/EC/assumptions.md item_1]**\n**[Source: domains/EX/assumptions.md item_1b]**\n\n---\n\n### When to Use EC\n\nEC **must** be used when collected exposu",
      "usage": {
        "prompt_tokens": 13859,
        "completion_tokens": 1154,
        "total_tokens": 15013
      },
      "model": "deepseek/deepseek-chat",
      "elapsed_s": 10.84
    },
    {
      "id": "q32",
      "category": "cross_domain",
      "question": "How is VISIT and VISITNUM used consistently across observation-class domains, and what role does the SV (Subject Visits) domain play in tracking actual visit dates?",
      "source_recall": 1.0,
      "source_hits": [
        "domains/SV/spec.md",
        "domains/SV/assumptions.md"
      ],
      "source_misses": [],
      "top5_sources": [
        "VARIABLE_INDEX.md",
        "domains/SV/spec.md",
        "model/03_special_purpose_domains.md",
        "chapters/ch04_general_assumptions.md",
        "domains/SV/assumptions.md"
      ],
      "top5_similarities": [
        0.6554,
        0.6543,
        0.7044,
        0.6665,
        0.6646
      ],
      "fact_recall": 1.0,
      "fact_hits": [
        "VISIT",
        "VISITNUM",
        "SV"
      ],
      "fact_misses": [],
      "answer_preview": "Based on the provided context, here is how VISIT and VISITNUM are used consistently across observation-class domains and the role of the SV domain.\n\n### Consistent Use of VISIT and VISITNUM Across Domains\n\nVISITNUM and VISIT are standard timing variables used across all three general observation classes (Interventions, Events, and Findings) to link subject-level data to a specific clinical encounter.\n\n- **VISITNUM (Visit Number):**\n    - **Role:** Timing\n    - **Core:** Expected (Exp) in most observation-class domains (e.g., FA, AG, PE) [Source: domains/FA/spec.md, domains/AG/spec.md, domains/",
      "usage": {
        "prompt_tokens": 13966,
        "completion_tokens": 959,
        "total_tokens": 14925
      },
      "model": "deepseek/deepseek-chat",
      "elapsed_s": 8.03
    },
    {
      "id": "q33",
      "category": "cross_domain",
      "question": "What is the RELSPEC domain and how does it define relationships between datasets at the study level, as opposed to RELREC which links individual records?",
      "source_recall": 1.0,
      "source_hits": [
        "domains/RELSPEC/spec.md"
      ],
      "source_misses": [],
      "top5_sources": [
        "domains/RELSPEC/spec.md",
        "domains/RELREC/spec.md",
        "domains/RELREC/assumptions.md",
        "chapters/ch08_relationships.md",
        "chapters/ch08_relationships.md"
      ],
      "top5_similarities": [
        0.5814,
        0.6533,
        0.7707,
        0.7621,
        0.7252
      ],
      "fact_recall": 1.0,
      "fact_hits": [
        "RELSPEC",
        "RELREC"
      ],
      "fact_misses": [],
      "answer_preview": "# RELSPEC Domain vs RELREC Domain\n\n## RELSPEC Domain\n\n**RELSPEC** (Related Specimens) is a special-purpose relationship dataset used exclusively to describe relationships **between specimens** — specifically, specimen lineage (e.g., parent specimen to derived aliquots or processed specimens). **[Source: model/06_relationship_datasets.md §6.7]**\n\n### Key Characteristics\n\n| Aspect | Detail |\n|--------|--------|\n| **Purpose** | Maintain relationships between specimens only |\n| **Structure** | One record per specimen identifier per subject |\n| **Scope** | Specimen genealogy tracking only |\n| **Sub",
      "usage": {
        "prompt_tokens": 15174,
        "completion_tokens": 1286,
        "total_tokens": 16460
      },
      "model": "deepseek/deepseek-chat",
      "elapsed_s": 10.15
    },
    {
      "id": "q34",
      "category": "cross_domain",
      "question": "Which SDTM domains share the controlled terminology codelist for NY (No Yes Response, C66742), and what variable typically uses this codelist in those domains?",
      "source_recall": 1.0,
      "source_hits": [
        "VARIABLE_INDEX.md"
      ],
      "source_misses": [],
      "top5_sources": [
        "VARIABLE_INDEX.md",
        "terminology/core/general_part4.md",
        "chapters/ch04_general_assumptions.md",
        "chapters/ch04_general_assumptions.md",
        "model/01_concepts_and_terms.md"
      ],
      "top5_similarities": [
        0.4516,
        0.5903,
        0.6157,
        0.6351,
        0.5697
      ],
      "fact_recall": 0.5,
      "fact_hits": [
        "C66742"
      ],
      "fact_misses": [
        "NY"
      ],
      "answer_preview": "Based on the retrieved context, the **No Yes Response (C66742)** codelist is referenced in the following SDTM domains:\n\n1. **SV (Subject Visits)** — used by variables **SVPRESP**, **SVOCCUR**, and **SVEPCHGI**  \n   **[Source: domains/SV/spec.md — Controlled Terminology]**\n\n2. **TM (Trial Disease Milestones)** — used by variable **TMRPT**  \n   **[Source: domains/TM/spec.md — Controlled Terminology]**\n\nAdditionally, the codelist is defined in the terminology file with the following permissible values:\n\n| Code | Submission Value | Definition |\n|------|------------------|------------|\n| C49487 | N",
      "usage": {
        "prompt_tokens": 12524,
        "completion_tokens": 274,
        "total_tokens": 12798
      },
      "model": "deepseek/deepseek-chat",
      "elapsed_s": 3.22
    },
    {
      "id": "q11",
      "category": "concept",
      "question": "What are the three observation classes in the SDTM model?",
      "source_recall": 1.0,
      "source_hits": [
        "model/02_observation_classes.md"
      ],
      "source_misses": [],
      "top5_sources": [
        "model/01_concepts_and_terms.md",
        "model/02_observation_classes.md",
        "chapters/ch04_general_assumptions.md",
        "chapters/ch04_general_assumptions.md",
        "terminology/supplementary/supplementary_part5.md"
      ],
      "top5_similarities": [
        0.5632,
        0.7205,
        0.5452,
        0.5352,
        0.5473
      ],
      "fact_recall": 1.0,
      "fact_hits": [
        "Interventions",
        "Events",
        "Findings"
      ],
      "fact_misses": [],
      "answer_preview": "Based on the SDTM knowledge base, the three general observation classes are **Interventions**, **Events**, and **Findings**.\n\nThese are defined in the SDTM model as the primary categories for organizing the majority of observations collected during a study. Datasets representing subject data are either general observation class datasets or special-purpose datasets. **[Source: model/02_observation_classes.md]**\n\nThe classes are described as follows:\n\n- **Interventions**: Investigational, therapeutic, and other treatments administered to or used by a subject (with some actual or expected physiol",
      "usage": {
        "prompt_tokens": 14455,
        "completion_tokens": 224,
        "total_tokens": 14679
      },
      "model": "deepseek/deepseek-chat",
      "elapsed_s": 2.85
    },
    {
      "id": "q12",
      "category": "concept",
      "question": "What do the Core designations Req, Exp, and Perm mean in SDTM?",
      "source_recall": 1.0,
      "source_hits": [
        "chapters/ch04"
      ],
      "source_misses": [],
      "top5_sources": [
        "chapters/ch04_general_assumptions.md",
        "VARIABLE_INDEX.md",
        "domains/SUPPQUAL/spec.md",
        "chapters/ch04_general_assumptions.md",
        "domains/CO/spec.md"
      ],
      "top5_similarities": [
        0.6571,
        0.5558,
        0.6055,
        5.7202,
        0.5926
      ],
      "fact_recall": 1.0,
      "fact_hits": [
        "Required",
        "Expected",
        "Permissible"
      ],
      "fact_misses": [],
      "answer_preview": "## SDTM Core Designations: Req, Exp, and Perm\n\nThe **Core** column in SDTM domain models specifies whether a variable is Required, Expected, or Permissible. These designations determine whether a variable must be included in a dataset and whether null values are allowed.\n\n---\n\n### Req (Required)\n\n| Attribute | Value |\n|-----------|-------|\n| **Meaning** | A Required variable is basic to the identification of a data record (i.e., essential key variables and a topic variable) or is necessary to make the record meaningful. |\n| **Rule** | Must always be included in the dataset and **cannot be null",
      "usage": {
        "prompt_tokens": 13241,
        "completion_tokens": 684,
        "total_tokens": 13925
      },
      "model": "deepseek/deepseek-chat",
      "elapsed_s": 5.84
    },
    {
      "id": "q13",
      "category": "concept",
      "question": "What is the difference between Topic, Qualifier, and Identifier variable roles?",
      "source_recall": 1.0,
      "source_hits": [
        "model/01_concepts_and_terms.md"
      ],
      "source_misses": [],
      "top5_sources": [
        "model/01_concepts_and_terms.md",
        "model/06_relationship_datasets.md",
        "chapters/ch08_relationships.md",
        "chapters/ch04_general_assumptions.md",
        "domains/ML/assumptions.md"
      ],
      "top5_similarities": [
        0.4934,
        0.4564,
        0.4718,
        0.526,
        0.5227
      ],
      "fact_recall": 1.0,
      "fact_hits": [
        "Topic",
        "Qualifier",
        "Identifier"
      ],
      "fact_misses": [],
      "answer_preview": "## Difference Between Topic, Qualifier, and Identifier Variable Roles\n\nThe SDTM defines **5 major variable roles**, of which Identifier, Topic, and Qualifier are three. Each role conveys a distinct type of information about an observation.\n\n---\n\n### 1. Identifier Variables\n\n**Purpose:** Identify the study, subject, domain, and sequence number of the record.\n\n**Examples:** `STUDYID`, `USUBJID`, `DOMAIN`, `--SEQ`\n\n**Key characteristics:**\n- Always appear first in the variable ordering for all observation classes **[Source: chapters/ch04_general_assumptions.md §4.1.4]**\n- Required for every domai",
      "usage": {
        "prompt_tokens": 14997,
        "completion_tokens": 1219,
        "total_tokens": 16216
      },
      "model": "deepseek/deepseek-chat",
      "elapsed_s": 10.57
    },
    {
      "id": "q14",
      "category": "concept",
      "question": "How should a sponsor create a new custom domain in SDTM?",
      "source_recall": 1.0,
      "source_hits": [
        "chapters/ch02"
      ],
      "source_misses": [],
      "top5_sources": [
        "chapters/ch04_general_assumptions.md",
        "chapters/ch02_fundamentals.md",
        "chapters/ch01_introduction.md",
        "chapters/ch04_general_assumptions.md",
        "chapters/ch03_submitting_data.md"
      ],
      "top5_similarities": [
        0.6011,
        0.4731,
        0.4777,
        0.4946,
        0.4894
      ],
      "fact_recall": 1.0,
      "fact_hits": [
        "observation class"
      ],
      "fact_misses": [],
      "answer_preview": "Based on the provided context, a sponsor should follow these rules when creating a new custom domain in SDTM:\n\n1. **Use Reserved Domain Codes**: To avoid conflicts with future CDISC-defined domain codes, domain codes beginning with the letters **X, Y, or Z** have been reserved for the creation of custom domains. Any letter or number may be used in the second position. Note that using codes beginning with X, Y, or Z is optional and not required for custom domains. **[Source: chapters/ch04_general_assumptions.md -- 4.1.6]**\n\n2. **Apply the General Observation Class Model**: When creating custom ",
      "usage": {
        "prompt_tokens": 15350,
        "completion_tokens": 386,
        "total_tokens": 15736
      },
      "model": "deepseek/deepseek-chat",
      "elapsed_s": 3.79
    },
    {
      "id": "q15",
      "category": "concept",
      "question": "What are the three SDTM Core designation categories for variables, and what are the rules for handling a Permissible variable when a study did not collect the corresponding data item?",
      "source_recall": 1.0,
      "source_hits": [
        "chapters/ch04_general_assumptions.md"
      ],
      "source_misses": [],
      "top5_sources": [
        "chapters/ch04_general_assumptions.md",
        "chapters/ch01_introduction.md",
        "chapters/ch04_general_assumptions.md",
        "chapters/ch04_general_assumptions.md",
        "model/01_concepts_and_terms.md"
      ],
      "top5_similarities": [
        0.7806,
        0.6228,
        0.5995,
        0.5964,
        0.6896
      ],
      "fact_recall": 1.0,
      "fact_hits": [
        "Req",
        "Exp",
        "Perm"
      ],
      "fact_misses": [],
      "answer_preview": "## SDTM Core Designations and Permissible Variable Rules\n\n### Three Core Designation Categories\n\nThe SDTM specifies three categories in the Core column of domain models **[Source: chapters/ch04_general_assumptions.md — 4.1.5 SDTM Core Designations]**:\n\n| Core Value | Meaning | Rule |\n|------------|---------|------|\n| **Req** (Required) | Basic to identification of a data record (essential key variables and a topic variable) or necessary to make the record meaningful | Must always be included in the dataset and **cannot be null for any record** |\n| **Exp** (Expected) | Necessary to make a recor",
      "usage": {
        "prompt_tokens": 15673,
        "completion_tokens": 454,
        "total_tokens": 16127
      },
      "model": "deepseek/deepseek-chat",
      "elapsed_s": 4.35
    },
    {
      "id": "q35",
      "category": "concept",
      "question": "What is Controlled Terminology (CT) in SDTM and how does it constrain the values that variables can contain?",
      "source_recall": 1.0,
      "source_hits": [
        "chapters/ch04"
      ],
      "source_misses": [],
      "top5_sources": [
        "chapters/ch04_general_assumptions.md",
        "chapters/ch04_general_assumptions.md",
        "model/01_concepts_and_terms.md",
        "model/01_concepts_and_terms.md",
        "chapters/ch10_appendices.md"
      ],
      "top5_similarities": [
        0.607,
        0.6771,
        0.6231,
        0.5926,
        0.6137
      ],
      "fact_recall": 1.0,
      "fact_hits": [
        "codelist",
        "Controlled Terms"
      ],
      "fact_misses": [],
      "answer_preview": "## Controlled Terminology (CT) in SDTM\n\n**Controlled Terminology (CT)** in SDTM refers to standardized, centrally managed sets of permissible values (codelists) that constrain the values certain variables can contain. CT ensures consistency across studies, sponsors, and regulatory submissions.\n\n---\n\n### How CT Constrains Variable Values\n\n#### 1. **Codelist Assignment**\n\nVariables in SDTM domain specifications include a \"Controlled Terms, Codelist or Format\" column that indicates how values are constrained:\n\n- **Named CDISC codelist** (e.g., \"(NY)\") — values must come from that specific codelis",
      "usage": {
        "prompt_tokens": 15145,
        "completion_tokens": 978,
        "total_tokens": 16123
      },
      "model": "deepseek/deepseek-chat",
      "elapsed_s": 9.05
    },
    {
      "id": "q36",
      "category": "concept",
      "question": "What are the timing variables in SDTM (such as --DTC, --STDTC, --ENDTC) and how are they structured across domains?",
      "source_recall": 1.0,
      "source_hits": [
        "chapters/ch04"
      ],
      "source_misses": [],
      "top5_sources": [
        "chapters/ch04_general_assumptions.md",
        "model/01_concepts_and_terms.md",
        "chapters/ch04_general_assumptions.md",
        "model/02_observation_classes.md",
        "domains/BE/assumptions.md"
      ],
      "top5_similarities": [
        0.6533,
        0.7001,
        0.6573,
        0.6517,
        0.6647
      ],
      "fact_recall": 1.0,
      "fact_hits": [
        "DTC",
        "STDTC",
        "ENDTC",
        "Timing"
      ],
      "fact_misses": [],
      "answer_preview": "# SDTM Timing Variables: Structure and Usage Across Domains\n\n## Overview\n\nTiming variables are an essential component of all SDTM subject-level domain datasets. In general, all domains based on the 3 general observation classes should have at least 1 timing variable. **[Source: chapters/ch04_general_assumptions.md §4.4]**\n\n## Core Date/Time Variables\n\nThe three primary date/time timing variables are:\n\n| Variable | Label | Type | Format | Notes |\n|----------|-------|------|--------|-------|\n| **--DTC** | Date/Time of Collection | Char | ISO 8601 | Primary date/time for the observation |\n| **--S",
      "usage": {
        "prompt_tokens": 15111,
        "completion_tokens": 1269,
        "total_tokens": 16380
      },
      "model": "deepseek/deepseek-chat",
      "elapsed_s": 10.54
    },
    {
      "id": "q37",
      "category": "concept",
      "question": "What are the Special-Purpose datasets in SDTM and which domains fall into this category?",
      "source_recall": 1.0,
      "source_hits": [
        "model/03_special_purpose_domains.md"
      ],
      "source_misses": [],
      "top5_sources": [
        "model/01_concepts_and_terms.md",
        "model/02_observation_classes.md",
        "model/03_special_purpose_domains.md",
        "chapters/ch04_general_assumptions.md",
        "chapters/ch04_general_assumptions.md"
      ],
      "top5_similarities": [
        0.666,
        0.6624,
        0.657,
        0.5978,
        0.6636
      ],
      "fact_recall": 1.0,
      "fact_hits": [
        "Special-Purpose",
        "DM",
        "CO",
        "SUPPQUAL"
      ],
      "fact_misses": [],
      "answer_preview": "Based on the SDTMIG v3.4 knowledge base, the Special-Purpose datasets are a category of standardized datasets that represent additional important information beyond the three General Observation Classes (Interventions, Events, and Findings).\n\nThe following domains fall into the Special-Purpose category:\n\n| Domain | Name | Description |\n|--------|------|-------------|\n| **CO** | Comments | Contains free-text comments related to data in one or more SDTM domains or collected on a separate CRF page dedicated to comments. **[Source: domains/CO/assumptions.md]** |\n| **DM** | Demographics | Includes ",
      "usage": {
        "prompt_tokens": 16055,
        "completion_tokens": 523,
        "total_tokens": 16578
      },
      "model": "deepseek/deepseek-chat",
      "elapsed_s": 4.91
    },
    {
      "id": "q38",
      "category": "concept",
      "question": "How are SDTM domain abbreviation codes assigned? What are the rules for the two-character domain code?",
      "source_recall": 1.0,
      "source_hits": [
        "chapters/ch02"
      ],
      "source_misses": [],
      "top5_sources": [
        "chapters/ch04_general_assumptions.md",
        "domains/SV/spec.md",
        "domains/FT/spec.md",
        "domains/EX/spec.md",
        "domains/IE/spec.md"
      ],
      "top5_similarities": [
        0.6759,
        0.6703,
        0.6691,
        0.6691,
        0.6689
      ],
      "fact_recall": 1.0,
      "fact_hits": [
        "two-character",
        "DOMAIN"
      ],
      "fact_misses": [],
      "answer_preview": "Based on the SDTMIG v3.4 knowledge base, SDTM domain abbreviation codes are assigned according to the following rules:\n\n## Assignment Rules\n\n1. **Two-character code**: Each domain is assigned a unique, 2-character code (DOMAIN) that serves as the domain abbreviation. This code is used in four ways:\n   - As the dataset name\n   - As the value of the DOMAIN variable in that dataset\n   - As a prefix for most variable names in that dataset\n   - As a value in the RDOMAIN variable in relationship tables\n\n   **[Source: chapters/ch02_fundamentals.md]**\n\n2. **Character restrictions**: The first characte",
      "usage": {
        "prompt_tokens": 10362,
        "completion_tokens": 670,
        "total_tokens": 11032
      },
      "model": "deepseek/deepseek-chat",
      "elapsed_s": 6.08
    },
    {
      "id": "q39",
      "category": "concept",
      "question": "What is the Findings About observation class and how does it differ from the standard Findings class?",
      "source_recall": 1.0,
      "source_hits": [
        "model/02_observation_classes.md"
      ],
      "source_misses": [],
      "top5_sources": [
        "domains/BS/spec.md",
        "chapters/ch08_relationships.md",
        "domains/CP/spec.md",
        "model/02_observation_classes.md",
        "domains/CV/spec.md"
      ],
      "top5_similarities": [
        0.7123,
        16.7017,
        0.7123,
        15.7114,
        0.7123
      ],
      "fact_recall": 1.0,
      "fact_hits": [
        "Findings About",
        "FAOBJ"
      ],
      "fact_misses": [],
      "answer_preview": "## Findings About Observation Class\n\nThe **Findings About** observation class is a **subtype of the Findings general observation class** used to record findings related to observations in the Interventions or Events classes. **[Source: model/02_observation_classes.md]**\n\n### Key Differences from Standard Findings\n\n| Aspect | Standard Findings | Findings About |\n|--------|-------------------|----------------|\n| **Purpose** | Observations from planned evaluations (lab tests, ECG, questionnaires) | Findings about events or interventions |\n| **Unique Variable** | None | **--OBJ** (Object of the Ob",
      "usage": {
        "prompt_tokens": 13339,
        "completion_tokens": 464,
        "total_tokens": 13803
      },
      "model": "deepseek/deepseek-chat",
      "elapsed_s": 5.04
    },
    {
      "id": "q40",
      "category": "concept",
      "question": "What is the difference between collected data and derived data in SDTM, and how is the origin of a variable value indicated?",
      "source_recall": 1.0,
      "source_hits": [
        "chapters/ch04"
      ],
      "source_misses": [],
      "top5_sources": [
        "chapters/ch04_general_assumptions.md",
        "model/01_concepts_and_terms.md",
        "chapters/ch01_introduction.md",
        "model/06_relationship_datasets.md",
        "chapters/ch04_general_assumptions.md"
      ],
      "top5_similarities": [
        0.641,
        0.6331,
        0.5626,
        0.5606,
        0.5626
      ],
      "fact_recall": 1.0,
      "fact_hits": [
        "Collected",
        "Derived",
        "Origin"
      ],
      "fact_misses": [],
      "answer_preview": "## Difference Between Collected Data and Derived Data in SDTM\n\n### Conceptual Distinction\n\n**Collected data** are values that originate directly from a data source without transformation — typically from a CRF, a vendor, or a device. **Derived data** are values that are computed, transformed, or algorithmically generated from other data points rather than being directly observed or recorded.\n\n**[Source: chapters/ch04_general_assumptions.md — 4.1.8.1 Origin Metadata for Variables]**\n\n### How Origin Is Indicated\n\nThe origin of a variable value is indicated using the **Origin metadata element** i",
      "usage": {
        "prompt_tokens": 16863,
        "completion_tokens": 744,
        "total_tokens": 17607
      },
      "model": "deepseek/deepseek-chat",
      "elapsed_s": 8.07
    },
    {
      "id": "q41",
      "category": "concept",
      "question": "What are the Trial Design Model datasets in SDTM and what kind of study-level information do they capture?",
      "source_recall": 1.0,
      "source_hits": [
        "model/05_study_level_data.md"
      ],
      "source_misses": [],
      "top5_sources": [
        "model/01_concepts_and_terms.md",
        "chapters/ch04_general_assumptions.md",
        "model/05_study_level_data.md",
        "domains/TA/assumptions.md",
        "domains/TI/assumptions.md"
      ],
      "top5_similarities": [
        0.6589,
        0.66,
        0.8164,
        0.6195,
        0.6483
      ],
      "fact_recall": 1.0,
      "fact_hits": [
        "Trial Design",
        "TA",
        "TE",
        "TV"
      ],
      "fact_misses": [],
      "answer_preview": "## Trial Design Model Datasets in SDTM\n\nThe Trial Design Model (TDM) is part of the **study-level data** in SDTM, which includes two types: **trial design data** and **study reference data**. The TDM provides a standardized way to describe the planned conduct of a clinical trial, as shown in study design diagrams and schedule of assessments tables. **[Source: model/05_study_level_data.md]**\n\n### Purpose\n\nThe TDM allows reviewers to:\n- Clearly and quickly grasp the design of a clinical trial\n- Compare the designs of different trials\n- Search a data warehouse for clinical trials with certain fea",
      "usage": {
        "prompt_tokens": 15940,
        "completion_tokens": 891,
        "total_tokens": 16831
      },
      "model": "deepseek/deepseek-chat",
      "elapsed_s": 8.81
    },
    {
      "id": "q16",
      "category": "mixed",
      "question": "What values are allowed for AESEV and what is its codelist code?",
      "source_recall": 1.0,
      "source_hits": [
        "domains/AE/spec.md",
        "terminology/core/ae.md"
      ],
      "source_misses": [],
      "top5_sources": [
        "terminology/core/ae.md",
        "domains/AE/assumptions.md",
        "domains/DM/examples.md",
        "domains/AE/spec.md",
        "chapters/ch04_general_assumptions.md"
      ],
      "top5_similarities": [
        0.3821,
        0.6134,
        8.5566,
        0.602,
        7.5799
      ],
      "fact_recall": 1.0,
      "fact_hits": [
        "C66769",
        "MILD",
        "MODERATE",
        "SEVERE"
      ],
      "fact_misses": [],
      "answer_preview": "Based on the retrieved context, the variable **AESEV** (Severity/Intensity) in the Adverse Events domain allows the following values, defined by codelist **C66769**:\n\n| CDISC Submission Value | CDISC Synonym(s) | CDISC Definition |\n|------------------------|-------------------|------------------|\n| MILD | 1; Grade 1 | A type of adverse event that is usually transient and may require only minimal treatment or therapeutic intervention. The event does not generally interfere with usual activities of daily living. |\n| MODERATE | 2; Grade 2 | A type of adverse event that is usually alleviated with ",
      "usage": {
        "prompt_tokens": 14827,
        "completion_tokens": 324,
        "total_tokens": 15151
      },
      "model": "deepseek/deepseek-chat",
      "elapsed_s": 3.31
    },
    {
      "id": "q17",
      "category": "mixed",
      "question": "How are date and time variables formatted in SDTM and what suffix do they use?",
      "source_recall": 1.0,
      "source_hits": [
        "chapters/ch04"
      ],
      "source_misses": [],
      "top5_sources": [
        "chapters/ch04_general_assumptions.md",
        "model/01_concepts_and_terms.md",
        "chapters/ch04_general_assumptions.md",
        "chapters/ch04_general_assumptions.md",
        "chapters/ch01_introduction.md"
      ],
      "top5_similarities": [
        0.763,
        0.6154,
        0.6041,
        0.5795,
        9.6467
      ],
      "fact_recall": 1.0,
      "fact_hits": [
        "ISO 8601",
        "DTC"
      ],
      "fact_misses": [],
      "answer_preview": "## Date/Time Variable Format in SDTM\n\n### Format Standard\n\nDate and time variables in SDTM are formatted according to the **ISO 8601 extended format**, represented as character (text) data. The format pattern is:\n\n```\nYYYY-MM-DDThh:mm:ss(.n+)?(((+|-)hh:mm)|Z)?\n```\n\nWhere:\n- **YYYY** = four-digit year\n- **MM** = two-digit month (01-12)\n- **DD** = two-digit day (01-31)\n- **T** = time designator (indicates time follows)\n- **hh** = two-digit hour (00-23, **am/pm NOT allowed**)\n- **mm** = two-digit minute (00-59)\n- **ss** = two-digit second (00-59)\n- **(.n+)?** = optional fractional seconds\n- **(((",
      "usage": {
        "prompt_tokens": 16523,
        "completion_tokens": 664,
        "total_tokens": 17187
      },
      "model": "deepseek/deepseek-chat",
      "elapsed_s": 6.01
    },
    {
      "id": "q18",
      "category": "mixed",
      "question": "Explain the MedDRA coding chain for adverse events from verbatim term to dictionary term.",
      "source_recall": 1.0,
      "source_hits": [
        "domains/AE/spec.md",
        "domains/AE/assumptions.md"
      ],
      "source_misses": [],
      "top5_sources": [
        "domains/AE/spec.md",
        "domains/AE/spec.md",
        "domains/AE/spec.md",
        "domains/AE/spec.md",
        "chapters/ch04_general_assumptions.md"
      ],
      "top5_similarities": [
        0.6135,
        0.5646,
        0.5637,
        0.5579,
        0.6726
      ],
      "fact_recall": 1.0,
      "fact_hits": [
        "AETERM",
        "AEMODIFY",
        "AEDECOD",
        "Preferred Term"
      ],
      "fact_misses": [],
      "answer_preview": "## MedDRA Coding Chain for Adverse Events\n\nThe MedDRA coding chain for adverse events in SDTM traces the transformation from the raw collected term through progressively standardized dictionary levels. Based on the SDTMIG v3.4 specification, the chain is as follows:\n\n### 1. **AETERM — Reported Term (Topic Variable)**\n- **Label:** Reported Term for the Adverse Event\n- **Type:** Char\n- **Role:** Topic\n- **Core:** Req\n- **Controlled Terms:** (none — free text)\n- **CDISC Notes:** Verbatim name of the event.\n- **[Source: domains/AE/spec.md — AETERM]**\n\nThis is the raw, verbatim term as collected fr",
      "usage": {
        "prompt_tokens": 13936,
        "completion_tokens": 1211,
        "total_tokens": 15147
      },
      "model": "deepseek/deepseek-chat",
      "elapsed_s": 10.58
    },
    {
      "id": "q19",
      "category": "mixed",
      "question": "What controlled terminology codelist is used for DSDECOD when DSCAT equals 'DISPOSITION EVENT', and list specific CDISC Submission Values from that codelist for reasons of non-completion.",
      "source_recall": 1.0,
      "source_hits": [
        "domains/DS/assumptions.md",
        "terminology/core/disposition.md"
      ],
      "source_misses": [],
      "top5_sources": [
        "domains/DS/spec.md",
        "terminology/core/disposition.md",
        "domains/DS/assumptions.md",
        "domains/DS/assumptions.md",
        "domains/DS/spec.md"
      ],
      "top5_similarities": [
        0.8036,
        0.634,
        0.7554,
        0.7186,
        0.7248
      ],
      "fact_recall": 1.0,
      "fact_hits": [
        "NCOMPLT",
        "C66727"
      ],
      "fact_misses": [],
      "answer_preview": "Based on the retrieved context, when `DSCAT` equals `\"DISPOSITION EVENT\"`, the controlled terminology codelist used for `DSDECOD` is **C66727 (Completion/Reason for Non-Completion)**.\n\n**[Source: domains/DS/spec.md — DSDECOD; domains/DS/assumptions.md — item_3.b]**\n\nThe context does not provide the full list of CDISC Submission Values from the C66727 codelist for reasons of non-completion. However, it does specify the following:\n\n- When a subject completes, `DSDECOD` is the term **\"COMPLETED\"** from the NCOMPLT codelist (which is part of C66727). **[Source: domains/DS/assumptions.md — item_3.b",
      "usage": {
        "prompt_tokens": 11106,
        "completion_tokens": 285,
        "total_tokens": 11391
      },
      "model": "deepseek/deepseek-chat",
      "elapsed_s": 3.44
    },
    {
      "id": "q20",
      "category": "mixed",
      "question": "In the DM domain, what is the difference between the RFSTDTC/RFENDTC reference period pair and the RFXSTDTC/RFXENDTC pair, and under what circumstances will RFSTDTC be null?",
      "source_recall": 1.0,
      "source_hits": [
        "domains/DM/assumptions.md",
        "domains/DM/spec.md"
      ],
      "source_misses": [],
      "top5_sources": [
        "domains/DM/spec.md",
        "domains/DM/spec.md",
        "domains/DM/spec.md",
        "domains/DM/spec.md",
        "domains/DM/assumptions.md"
      ],
      "top5_similarities": [
        0.624,
        0.5839,
        0.55,
        0.547,
        0.6645
      ],
      "fact_recall": 1.0,
      "fact_hits": [
        "sponsor-defined",
        "screen failure"
      ],
      "fact_misses": [],
      "answer_preview": "## Difference Between RFSTDTC/RFENDTC and RFXSTDTC/RFXENDTC\n\n### 1. Definition and Customization\n\n**RFSTDTC/RFENDTC (Subject Reference Start/End Date/Time)**\n- **Sponsor-defined** reference period — open to customization based on study design\n- Usually represents the date/time of first and last study exposure, but may be defined differently (e.g., enrollment date, screening procedure date)\n- **Role:** Record Qualifier, **Core:** Expected **[Source: domains/DM/spec.md — RFSTDTC, RFENDTC]**\n\n**RFXSTDTC/RFXENDTC (Date/Time of First/Last Study Treatment)**\n- **Not open to customization** — always ",
      "usage": {
        "prompt_tokens": 11649,
        "completion_tokens": 787,
        "total_tokens": 12436
      },
      "model": "deepseek/deepseek-chat",
      "elapsed_s": 7.52
    },
    {
      "id": "q42",
      "category": "mixed",
      "question": "In the LB domain, how are normal ranges represented using LBORNRLO and LBORNRHI, and what is the LBNRIND variable used for?",
      "source_recall": 1.0,
      "source_hits": [
        "domains/LB/spec.md",
        "domains/LB/assumptions.md"
      ],
      "source_misses": [],
      "top5_sources": [
        "domains/LB/spec.md",
        "domains/LB/spec.md",
        "domains/LB/spec.md",
        "domains/LB/spec.md",
        "domains/LB/assumptions.md"
      ],
      "top5_similarities": [
        0.7713,
        0.6935,
        0.6933,
        0.6692,
        0.764
      ],
      "fact_recall": 1.0,
      "fact_hits": [
        "LBORNRLO",
        "LBORNRHI",
        "LBNRIND"
      ],
      "fact_misses": [],
      "answer_preview": "Based on the SDTMIG v3.4 knowledge base, here is how normal ranges are represented in the LB domain:\n\n## LBORNRLO and LBORNRHI (Reference Range Limits in Original Units)\n\n- **LBORNRLO** (Reference Range Lower Limit in Orig Unit): A character variable that represents the lower end of the reference range for continuous measurements in original units. It should only be populated for continuous results. **[Source: domains/LB/spec.md -- LBORNRLO]**\n- **LBORNRHI** (Reference Range Upper Limit in Orig Unit): A character variable that represents the upper end of the reference range for continuous meas",
      "usage": {
        "prompt_tokens": 12527,
        "completion_tokens": 685,
        "total_tokens": 13212
      },
      "model": "deepseek/deepseek-chat",
      "elapsed_s": 6.08
    },
    {
      "id": "q43",
      "category": "mixed",
      "question": "What is the controlled terminology codelist for the SEX variable in the DM domain? Provide the codelist code and describe the Core designation.",
      "source_recall": 1.0,
      "source_hits": [
        "domains/DM/spec.md"
      ],
      "source_misses": [],
      "top5_sources": [
        "domains/DM/spec.md",
        "terminology/core/dm.md",
        "chapters/ch04_general_assumptions.md",
        "domains/DM/spec.md",
        "chapters/ch04_general_assumptions.md"
      ],
      "top5_similarities": [
        0.6578,
        0.5551,
        0.633,
        0.6311,
        0.5852
      ],
      "fact_recall": 1.0,
      "fact_hits": [
        "SEX",
        "C66731",
        "Req"
      ],
      "fact_misses": [],
      "answer_preview": "Based on the retrieved context, the controlled terminology codelist for the **SEX** variable in the **DM** domain is **C66731**.\n\n**Details:**\n\n*   **Codelist Code:** C66731\n*   **Codelist Name:** Sex\n*   **Extensible:** No\n*   **Permissible Values:** F (Female), M (Male), U (Unknown), UNDIFFERENTIATED\n\n**Core Designation:**\n\nThe **SEX** variable has a **Core** designation of **Req** (Required). This means that the variable must be populated for every record in the DM domain. **[Source: domains/DM/spec.md]**\n\n**Source:**\n*   Variable specification: [domains/DM/spec.md](domains/DM/spec.md)\n*   ",
      "usage": {
        "prompt_tokens": 11798,
        "completion_tokens": 187,
        "total_tokens": 11985
      },
      "model": "deepseek/deepseek-chat",
      "elapsed_s": 2.61
    },
    {
      "id": "q44",
      "category": "mixed",
      "question": "In the VS domain, what is the controlled terminology codelist code for VSTESTCD, and give examples of standard vital signs test codes like systolic and diastolic blood pressure.",
      "source_recall": 1.0,
      "source_hits": [
        "domains/VS/spec.md"
      ],
      "source_misses": [],
      "top5_sources": [
        "domains/VS/spec.md",
        "terminology/core/vs.md",
        "domains/VS/spec.md",
        "domains/VS/spec.md",
        "VARIABLE_INDEX.md"
      ],
      "top5_similarities": [
        0.7284,
        0.4981,
        0.6737,
        0.6183,
        0.5512
      ],
      "fact_recall": 1.0,
      "fact_hits": [
        "C66741",
        "SYSBP",
        "DIABP"
      ],
      "fact_misses": [],
      "answer_preview": "Based on the retrieved context, here is the information for the VS domain:\n\n**VSTESTCD Controlled Terminology Codelist Code:** C66741 **[Source: domains/VS/spec.md]**\n\n**Examples of Standard Vital Signs Test Codes:**\n- **SYSBP** — Systolic Blood Pressure **[Source: terminology/core/vs.md]**\n- **DIABP** — Diastolic Blood Pressure **[Source: terminology/core/vs.md]**\n\n**Additional Details:**\n- **VSTESTCD Label:** Vital Signs Test Short Name **[Source: domains/VS/spec.md]**\n- **VSTESTCD Type:** Char **[Source: domains/VS/spec.md]**\n- **VSTESTCD Role:** Topic **[Source: domains/VS/spec.md]**\n- **V",
      "usage": {
        "prompt_tokens": 14381,
        "completion_tokens": 310,
        "total_tokens": 14691
      },
      "model": "deepseek/deepseek-chat",
      "elapsed_s": 3.31
    },
    {
      "id": "q45",
      "category": "mixed",
      "question": "What is the RACE variable in the DM domain, what codelist does it use, and what is its Core designation?",
      "source_recall": 1.0,
      "source_hits": [
        "domains/DM/spec.md"
      ],
      "source_misses": [],
      "top5_sources": [
        "domains/DM/spec.md",
        "terminology/core/dm.md",
        "domains/DM/examples.md",
        "domains/DM/examples.md",
        "domains/DM/assumptions.md"
      ],
      "top5_similarities": [
        0.6135,
        0.469,
        0.5662,
        0.5707,
        0.6038
      ],
      "fact_recall": 1.0,
      "fact_hits": [
        "RACE",
        "C74457",
        "Exp"
      ],
      "fact_misses": [],
      "answer_preview": "Based on the retrieved context, here is the definition of the RACE variable in the DM domain:\n\n**Variable:** RACE\n- **Label:** Race\n- **Type:** Char\n- **Role:** Record Qualifier\n- **Core:** Exp (Expected)\n- **Controlled Terms:** C74457\n\n**[Source: domains/DM/spec.md]**\n\nThe RACE variable uses the **Race (C74457)** codelist. This codelist is non-extensible and includes the following permissible values:\n\n- AMERICAN INDIAN OR ALASKA NATIVE\n- ASIAN\n- BLACK OR AFRICAN AMERICAN\n- NATIVE HAWAIIAN OR OTHER PACIFIC ISLANDER\n- NOT REPORTED\n- OTHER\n- UNKNOWN\n- WHITE\n\n**[Source: terminology/core/dm.md]**\n",
      "usage": {
        "prompt_tokens": 15906,
        "completion_tokens": 302,
        "total_tokens": 16208
      },
      "model": "deepseek/deepseek-chat",
      "elapsed_s": 3.71
    },
    {
      "id": "q46",
      "category": "mixed",
      "question": "What is the AEOUT (Outcome of Adverse Event) variable in the AE domain and what controlled terminology codelist code does it use?",
      "source_recall": 1.0,
      "source_hits": [
        "domains/AE/spec.md"
      ],
      "source_misses": [],
      "top5_sources": [
        "domains/AE/spec.md",
        "terminology/core/ae.md",
        "domains/AE/spec.md",
        "VARIABLE_INDEX.md",
        "domains/AE/assumptions.md"
      ],
      "top5_similarities": [
        0.7992,
        0.5705,
        0.6582,
        0.6157,
        0.7025
      ],
      "fact_recall": 1.0,
      "fact_hits": [
        "AEOUT",
        "C66768",
        "Perm"
      ],
      "fact_misses": [],
      "answer_preview": "## AEOUT — Outcome of Adverse Event\n\n### Variable Definition\n\n| Attribute | Value |\n|-----------|-------|\n| **Label** | Outcome of Adverse Event |\n| **Type** | Char |\n| **Role** | Record Qualifier |\n| **Core** | Perm (Permissible) |\n| **Controlled Terms** | C66768 |\n| **CDISC Notes** | Description of the outcome of an event. |\n\n**[Source: domains/AE/spec.md — AEOUT]**\n\n### Controlled Terminology (C66768 — \"Outcome of Event\")\n\nThe codelist is **non-extensible** and contains the following 6 permitted values:\n\n| Code | Submission Value | Definition |\n|------|-----------------|------------|\n| C482",
      "usage": {
        "prompt_tokens": 14579,
        "completion_tokens": 503,
        "total_tokens": 15082
      },
      "model": "deepseek/deepseek-chat",
      "elapsed_s": 5.09
    },
    {
      "id": "q47",
      "category": "mixed",
      "question": "How do QS (Questionnaires) domains handle instrument-specific variables using QSCAT, and what role does QSTESTCD play in organizing question-level data?",
      "source_recall": 1.0,
      "source_hits": [
        "domains/QS/spec.md",
        "domains/QS/assumptions.md"
      ],
      "source_misses": [],
      "top5_sources": [
        "VARIABLE_INDEX.md",
        "domains/QS/spec.md",
        "chapters/ch04_general_assumptions.md",
        "chapters/ch08_relationships.md",
        "domains/SUPPQUAL/examples.md"
      ],
      "top5_similarities": [
        0.6339,
        0.6923,
        0.6635,
        0.5798,
        0.6612
      ],
      "fact_recall": 1.0,
      "fact_hits": [
        "QSTESTCD",
        "QSCAT",
        "Topic"
      ],
      "fact_misses": [],
      "answer_preview": "Based on the SDTMIG v3.4 knowledge base, the QS (Questionnaires) domain handles instrument-specific variables and organizes question-level data through a structured approach using **QSCAT** as a grouping qualifier and **QSTESTCD** as the topic variable.\n\n## QSCAT: Instrument-Level Grouping\n\n**QSCAT** (Category of Question) serves as the primary mechanism for identifying which questionnaire instrument a set of questions belongs to.\n\n- **Label:** Category of Question\n- **Type:** Char\n- **Role:** Grouping Qualifier\n- **Core:** Req\n- **Controlled Terms:** C100129\n\n**[Source: domains/QS/spec.md]**\n",
      "usage": {
        "prompt_tokens": 16191,
        "completion_tokens": 1074,
        "total_tokens": 17265
      },
      "model": "deepseek/deepseek-chat",
      "elapsed_s": 9.61
    },
    {
      "id": "q48",
      "category": "mixed",
      "question": "What is the FATESTCD variable's controlled terminology codelist code in the FA domain, and give examples of standard FA test codes?",
      "source_recall": 1.0,
      "source_hits": [
        "domains/FA/spec.md"
      ],
      "source_misses": [],
      "top5_sources": [
        "domains/FA/spec.md",
        "terminology/core/findings_about.md",
        "domains/FA/assumptions.md",
        "domains/FA/spec.md",
        "chapters/ch04_general_assumptions.md"
      ],
      "top5_similarities": [
        0.678,
        0.4042,
        0.6327,
        0.6766,
        0.5692
      ],
      "fact_recall": 1.0,
      "fact_hits": [
        "FATESTCD",
        "C101832"
      ],
      "fact_misses": [],
      "answer_preview": "Based on the retrieved context, the FATESTCD variable in the FA domain uses the controlled terminology codelist code **C101832** (Findings About Test Code). This codelist is extensible.\n\nStandard examples of FA test codes include:\n\n- **SEV** — Severity/Intensity\n- **OCCUR** — Occurrence Indicator\n- **TOXGR** — Toxicity Grade\n\nThese codes are derived from the corresponding variable names in the Events or Interventions observation classes (e.g., `--SEV`, `--OCCUR`, `--TOXGR`) and are used when FA represents findings about a part of an event or intervention (i.e., the assessment has different tim",
      "usage": {
        "prompt_tokens": 15382,
        "completion_tokens": 362,
        "total_tokens": 15744
      },
      "model": "deepseek/deepseek-chat",
      "elapsed_s": 4.03
    },
    {
      "id": "s01",
      "category": "single_domain",
      "question": "In the DM domain, what is the controlled terminology codelist code for the SEX variable, and what are its four permitted submission values?",
      "source_recall": 1.0,
      "source_hits": [
        "terminology/core/dm.md",
        "domains/DM/spec.md"
      ],
      "source_misses": [],
      "top5_sources": [
        "domains/DM/spec.md",
        "terminology/core/dm.md",
        "domains/DM/assumptions.md",
        "domains/DM/spec.md",
        "chapters/ch04_general_assumptions.md"
      ],
      "top5_similarities": [
        0.6528,
        0.5864,
        0.556,
        0.5862,
        0.5688
      ],
      "fact_recall": 1.0,
      "fact_hits": [
        "C66731",
        "F",
        "M",
        "U",
        "UNDIFFERENTIATED"
      ],
      "fact_misses": [],
      "answer_preview": "Based on the retrieved context, the controlled terminology codelist code for the **SEX** variable in the DM domain is **C66731**, and its four permitted submission values are **F**, **M**, **U**, and **UNDIFFERENTIATED**.\n\n**Details:**\n\n- **Codelist Code:** C66731 (Sex) [Source: domains/DM/spec.md; terminology/core/dm.md]\n- **Extensible:** No [Source: terminology/core/dm.md]\n- **Permitted Submission Values:**\n  - **F** (Female) — A person who belongs to the sex that normally produces ova. [Source: terminology/core/dm.md]\n  - **M** (Male) — A person who belongs to the sex that normally produces",
      "usage": {
        "prompt_tokens": 13616,
        "completion_tokens": 296,
        "total_tokens": 13912
      },
      "model": "deepseek/deepseek-chat",
      "elapsed_s": 3.18
    },
    {
      "id": "s02",
      "category": "concept",
      "question": "What is the SUPPQUAL variable QNAM and what character constraints apply to it? What is the maximum length and what characters are allowed?",
      "source_recall": 1.0,
      "source_hits": [
        "domains/SUPPQUAL/spec.md",
        "model/06_relationship_datasets.md"
      ],
      "source_misses": [],
      "top5_sources": [
        "domains/SUPPQUAL/spec.md",
        "domains/SUPPQUAL/spec.md",
        "domains/SUPPQUAL/spec.md",
        "domains/SUPPQUAL/spec.md",
        "chapters/ch04_general_assumptions.md"
      ],
      "top5_similarities": [
        0.6726,
        0.6267,
        0.5758,
        0.4786,
        0.5437
      ],
      "fact_recall": 1.0,
      "fact_hits": [
        "QNAM",
        "8 characters",
        "letters, numbers, or underscores",
        "cannot start with a number",
        "Qualifier Variable Name"
      ],
      "fact_misses": [],
      "answer_preview": "## QNAM Variable Definition\n\n**QNAM** (Qualifier Variable Name) is a required variable in the SUPPQUAL (Supplemental Qualifiers) dataset with the following attributes:\n\n| Attribute | Value |\n|-----------|-------|\n| **Label** | Qualifier Variable Name |\n| **Type** | Char |\n| **Role** | Topic |\n| **Core** | Req |\n| **Controlled Terms** | None (sponsor-defined, but see naming conventions below) |\n\n**[Source: domains/SUPPQUAL/spec.md]**\n\n## Character Constraints\n\nQNAM is subject to the following restrictions:\n\n### Maximum Length\n- **8 characters maximum** — QNAM cannot be longer than 8 characters\n",
      "usage": {
        "prompt_tokens": 14889,
        "completion_tokens": 481,
        "total_tokens": 15370
      },
      "model": "deepseek/deepseek-chat",
      "elapsed_s": 5.31
    },
    {
      "id": "s03",
      "category": "cross_domain",
      "question": "The DM variable RFXSTDTC is defined as equal to the earliest value of which variable in the EX domain? Similarly, RFXENDTC is equal to the latest value of which EX variable (or which fallback variable if that is not collected)?",
      "source_recall": 1.0,
      "source_hits": [
        "domains/DM/spec.md",
        "domains/EX/spec.md"
      ],
      "source_misses": [],
      "top5_sources": [
        "domains/DM/spec.md",
        "domains/EX/spec.md",
        "domains/DM/assumptions.md",
        "domains/DM/spec.md",
        "domains/DM/spec.md"
      ],
      "top5_similarities": [
        0.6568,
        0.5803,
        0.6371,
        0.6269,
        0.5537
      ],
      "fact_recall": 1.0,
      "fact_hits": [
        "EXSTDTC",
        "RFXSTDTC",
        "EXENDTC",
        "RFXENDTC",
        "earliest",
        "latest"
      ],
      "fact_misses": [],
      "answer_preview": "Based on the retrieved context, the DM variable RFXSTDTC is defined as equal to the earliest value of **EXSTDTC** in the EX domain. Similarly, RFXENDTC is defined as equal to the latest value of **EXENDTC** (or the latest value of **EXSTDTC** if EXENDTC was not collected or is missing).\n\n**Source:** \n- RFXSTDTC: \"First date/time of exposure to any protocol-specified treatment or therapy, equal to the earliest value of EXSTDTC.\" **[Source: domains/DM/spec.md -- RFXSTDTC]**\n- RFXENDTC: \"Last date/time of exposure to any protocol-specified treatment or therapy, equal to the latest value of EXENDT",
      "usage": {
        "prompt_tokens": 14142,
        "completion_tokens": 198,
        "total_tokens": 14340
      },
      "model": "deepseek/deepseek-chat",
      "elapsed_s": 2.51
    },
    {
      "id": "s04",
      "category": "mixed",
      "question": "In the AE domain, what is the controlled terminology codelist code for the AEACN (Action Taken with Study Treatment) variable, and what ICH E2B example values does the CDISC Notes field list for this variable?",
      "source_recall": 1.0,
      "source_hits": [
        "domains/AE/spec.md",
        "terminology/core/ae.md"
      ],
      "source_misses": [],
      "top5_sources": [
        "domains/AE/spec.md",
        "terminology/core/ae.md",
        "domains/AE/spec.md",
        "domains/AE/assumptions.md",
        "domains/AE/spec.md"
      ],
      "top5_similarities": [
        0.7623,
        0.5455,
        0.681,
        0.676,
        0.6262
      ],
      "fact_recall": 1.0,
      "fact_hits": [
        "C66767",
        "DRUG WITHDRAWN",
        "DOSE REDUCED",
        "DOSE INCREASED",
        "DOSE NOT CHANGED",
        "UNKNOWN",
        "NOT APPLICABLE"
      ],
      "fact_misses": [],
      "answer_preview": "Based on the retrieved context, the controlled terminology codelist code for the AEACN (Action Taken with Study Treatment) variable is **C66767**.\n\nThe CDISC Notes field for AEACN lists the following ICH E2B example values: **\"DRUG WITHDRAWN\"**, **\"DOSE REDUCED\"**, **\"DOSE INCREASED\"**, **\"DOSE NOT CHANGED\"**, **\"UNKNOWN\"**, and **\"NOT APPLICABLE\"**.\n\n**[Source: domains/AE/spec.md — AEACN]**",
      "usage": {
        "prompt_tokens": 13624,
        "completion_tokens": 120,
        "total_tokens": 13744
      },
      "model": "deepseek/deepseek-chat",
      "elapsed_s": 1.91
    },
    {
      "id": "s05",
      "category": "single_domain",
      "question": "In the VS domain, what is the controlled terminology codelist code for the VSTESTCD variable? Name the codelist, state whether it is extensible, and give three example TESTCD values listed for blood pressure and heart rate.",
      "source_recall": 1.0,
      "source_hits": [
        "domains/VS/spec.md",
        "terminology/core/vs.md"
      ],
      "source_misses": [],
      "top5_sources": [
        "domains/VS/spec.md",
        "terminology/core/vs.md",
        "chapters/ch04_general_assumptions.md",
        "chapters/ch04_general_assumptions.md",
        "domains/IS/assumptions.md"
      ],
      "top5_similarities": [
        0.6639,
        0.4761,
        0.5932,
        0.5578,
        0.5883
      ],
      "fact_recall": 1.0,
      "fact_hits": [
        "C66741",
        "Vital Signs Test Code",
        "Extensible: Yes",
        "SYSBP",
        "DIABP",
        "HR"
      ],
      "fact_misses": [],
      "answer_preview": "Based on the retrieved context, the controlled terminology codelist for the VSTESTCD variable in the VS domain is **C66741**.\n\n- **Codelist Name:** Vital Signs Test Code\n- **Extensible:** The context does not explicitly state whether C66741 is extensible. However, the terminology file for VS units (C66770) is explicitly marked as \"Extensible: Yes\" **[Source: terminology/core/vs.md]**. Since the spec for VSTESTCD does not indicate non-extensibility, and by convention many test code codelists are extensible, this should be verified in the full terminology file. Based on the available information",
      "usage": {
        "prompt_tokens": 13501,
        "completion_tokens": 407,
        "total_tokens": 13908
      },
      "model": "deepseek/deepseek-chat",
      "elapsed_s": 4.77
    },
    {
      "id": "q54",
      "category": "single_domain",
      "question": "In the DV (Protocol Deviations) domain, which observation class does it belong to and what is the Topic variable DVTERM?",
      "source_recall": 1.0,
      "source_hits": [
        "domains/DV/spec.md"
      ],
      "source_misses": [],
      "top5_sources": [
        "domains/DV/spec.md",
        "domains/DV/spec.md",
        "domains/DV/spec.md",
        "domains/DV/spec.md",
        "domains/DV/assumptions.md"
      ],
      "top5_similarities": [
        0.7536,
        0.664,
        0.6494,
        0.5789,
        0.7551
      ],
      "fact_recall": 1.0,
      "fact_hits": [
        "Events",
        "DVTERM",
        "Protocol Deviation Term",
        "Topic"
      ],
      "fact_misses": [],
      "answer_preview": "Based on the SDTMIG v3.4 knowledge base:\n\n## DV Domain Observation Class\n\nThe DV (Protocol Deviations) domain belongs to the **Events** observation class. This is explicitly stated in the DV assumptions:\n\n> \"The DV domain is an Events model for collected protocol deviations and not for derived protocol deviations that are more likely to be part of analysis.\" **[Source: domains/DV/assumptions.md — item_1]**\n\n## DVTERM Variable Definition\n\n| Attribute | Value |\n|-----------|-------|\n| **Label** | Protocol Deviation Term |\n| **Type** | Char |\n| **Role** | Topic |\n| **Core** | Req (Required) |\n| *",
      "usage": {
        "prompt_tokens": 12967,
        "completion_tokens": 387,
        "total_tokens": 13354
      },
      "model": "deepseek/deepseek-chat",
      "elapsed_s": 4.42
    },
    {
      "id": "q55",
      "category": "single_domain",
      "question": "What is the structure and observation class of the DS (Disposition) domain, and what is the role of the DSTERM variable?",
      "source_recall": 1.0,
      "source_hits": [
        "domains/DS/spec.md"
      ],
      "source_misses": [],
      "top5_sources": [
        "domains/DS/spec.md",
        "domains/DS/spec.md",
        "domains/DS/spec.md",
        "domains/DS/spec.md",
        "domains/DS/assumptions.md"
      ],
      "top5_similarities": [
        0.6292,
        0.5718,
        0.544,
        0.5266,
        0.5828
      ],
      "fact_recall": 1.0,
      "fact_hits": [
        "Events",
        "DSTERM",
        "Topic",
        "disposition"
      ],
      "fact_misses": [],
      "answer_preview": "Based on the retrieved context, the DS (Disposition) domain is structured as an **Events** general observation class domain, and the **DSTERM** variable serves as the **Topic** variable for that domain.\n\n### Structure and Observation Class\n\nThe DS domain belongs to the **Events** general observation class. This is confirmed by the domain index, which lists DS under \"Events Domains\" **[Source: INDEX.md]**.\n\nAs an Events domain, DS follows the standard SDTM structure for events, which includes:\n- **Identifier variables** (e.g., STUDYID, DOMAIN, USUBJID, DSSEQ)\n- **Topic variable** (DSTERM)\n- **T",
      "usage": {
        "prompt_tokens": 14139,
        "completion_tokens": 505,
        "total_tokens": 14644
      },
      "model": "deepseek/deepseek-chat",
      "elapsed_s": 5.8
    },
    {
      "id": "q56",
      "category": "single_domain",
      "question": "In the SU (Substance Use) domain, what observation class is it and what is the SUTRT variable?",
      "source_recall": 1.0,
      "source_hits": [
        "domains/SU/spec.md"
      ],
      "source_misses": [],
      "top5_sources": [
        "domains/SU/spec.md",
        "domains/SU/spec.md",
        "domains/SU/spec.md",
        "domains/SU/spec.md",
        "VARIABLE_INDEX.md"
      ],
      "top5_similarities": [
        0.6606,
        0.6408,
        0.6341,
        0.6277,
        0.6706
      ],
      "fact_recall": 1.0,
      "fact_hits": [
        "Interventions",
        "SUTRT",
        "Reported Name of Substance",
        "Topic"
      ],
      "fact_misses": [],
      "answer_preview": "Based on the provided context, the SU (Substance Use) domain belongs to the **Interventions** observation class, and the **SUTRT** variable is the Topic variable for the domain.\n\n**Observation Class:** Interventions\n\n- The SU domain is listed under \"Interventions Domains\" in the knowledge base index. **[Source: INDEX.md]**\n- The VARIABLE_INDEX.md header confirms: \"SU — Substance Use (Interventions)\". **[Source: VARIABLE_INDEX.md]**\n\n**SUTRT Variable Definition:**\n\n- **Label:** Reported Name of Substance\n- **Type:** Char\n- **Role:** Topic\n- **Core:** Req\n- **Controlled Terms:** (none)\n- **CDISC",
      "usage": {
        "prompt_tokens": 12169,
        "completion_tokens": 276,
        "total_tokens": 12445
      },
      "model": "deepseek/deepseek-chat",
      "elapsed_s": 3.38
    },
    {
      "id": "q57",
      "category": "single_domain",
      "question": "What is the PR (Procedures) domain used for, and what is the PRTRT topic variable along with its Core designation?",
      "source_recall": 1.0,
      "source_hits": [
        "domains/PR/spec.md"
      ],
      "source_misses": [],
      "top5_sources": [
        "domains/PR/spec.md",
        "domains/PR/spec.md",
        "domains/PR/spec.md",
        "domains/PR/spec.md",
        "domains/PR/examples.md"
      ],
      "top5_similarities": [
        0.7274,
        0.6198,
        0.6094,
        0.6051,
        0.5826
      ],
      "fact_recall": 0.75,
      "fact_hits": [
        "PRTRT",
        "Reported Name of Procedure",
        "Req"
      ],
      "fact_misses": [
        "Interventions"
      ],
      "answer_preview": "Based on the retrieved context, the PR (Procedures) domain is used to represent all collected procedures performed on a subject, regardless of the extent of physiological effect or whether it is collected in the study. The protocol design should specify whether procedure information will be collected. Measurements obtained from procedures are to be represented in their respective Findings domain(s) [Source: domains/PR/assumptions.md].\n\nThe PRTRT variable is defined as follows:\n\n- **Label:** Reported Name of Procedure\n- **Type:** Char\n- **Controlled Terms:** (none)\n- **Role:** Topic\n- **Core:**",
      "usage": {
        "prompt_tokens": 14173,
        "completion_tokens": 160,
        "total_tokens": 14333
      },
      "model": "deepseek/deepseek-chat",
      "elapsed_s": 2.48
    },
    {
      "id": "q58",
      "category": "single_domain",
      "question": "Describe the TS (Trial Summary) domain structure and the TSPARMCD variable, including its controlled terminology codelist code and length limit.",
      "source_recall": 1.0,
      "source_hits": [
        "domains/TS/spec.md"
      ],
      "source_misses": [],
      "top5_sources": [
        "domains/TS/spec.md",
        "terminology/core/trial_design.md",
        "VARIABLE_INDEX.md",
        "model/05_study_level_data.md",
        "domains/TS/assumptions.md"
      ],
      "top5_similarities": [
        0.7561,
        0.5199,
        0.715,
        0.5921,
        0.6527
      ],
      "fact_recall": 1.0,
      "fact_hits": [
        "Trial Summary",
        "TSPARMCD",
        "C66738",
        "8 characters"
      ],
      "fact_misses": [],
      "answer_preview": "## TS (Trial Summary) Domain Structure\n\nThe Trial Summary (TS) dataset allows the sponsor to submit a summary of the trial in a structured format. Each record contains the value of a parameter — a characteristic of the trial — such as trial phase, protocol title, and trial objectives. TS contains information about both planned and actual trial characteristics. **[Source: domains/TS/assumptions.md — overview]**\n\nTS does **not** contain subject-level data, so there is no restriction analogous to the requirement in subject-level datasets that blocks bound by TSGRPID are within a subject. TSGRPID ",
      "usage": {
        "prompt_tokens": 12248,
        "completion_tokens": 1260,
        "total_tokens": 13508
      },
      "model": "deepseek/deepseek-chat",
      "elapsed_s": 9.86
    },
    {
      "id": "q59",
      "category": "single_domain",
      "question": "In the DD (Death Details) domain, what is the DDTESTCD variable and its controlled terminology codelist code?",
      "source_recall": 1.0,
      "source_hits": [
        "domains/DD/spec.md"
      ],
      "source_misses": [],
      "top5_sources": [
        "domains/DD/spec.md",
        "terminology/core/other_part4.md",
        "domains/DD/spec.md",
        "VARIABLE_INDEX.md",
        "domains/DD/spec.md"
      ],
      "top5_similarities": [
        0.766,
        0.6055,
        0.7584,
        0.6406,
        0.7599
      ],
      "fact_recall": 1.0,
      "fact_hits": [
        "DDTESTCD",
        "C116108",
        "Topic"
      ],
      "fact_misses": [],
      "answer_preview": "Based on the retrieved context, the **DDTESTCD** variable in the DD (Death Details) domain is defined as follows:\n\n- **Label:** Death Detail Assessment Short Name\n- **Type:** Char\n- **Role:** Topic\n- **Core:** Req (Required)\n- **Controlled Terms:** C116108\n- **CDISC Notes:** Short name of the measurement, test, or examination described in DDTEST. It can be used as a column name when converting a dataset from a vertical to a horizontal format. The value in DDTESTCD cannot be longer than 8 characters, nor can it start with a number (e.g., \"1TEST\" is not valid). DDTESTCD cannot contain characters",
      "usage": {
        "prompt_tokens": 11880,
        "completion_tokens": 430,
        "total_tokens": 12310
      },
      "model": "deepseek/deepseek-chat",
      "elapsed_s": 3.91
    },
    {
      "id": "q60",
      "category": "single_domain",
      "question": "What is the CE (Clinical Events) domain, which observation class does it belong to, and what is the CETERM variable?",
      "source_recall": 1.0,
      "source_hits": [
        "domains/CE/spec.md"
      ],
      "source_misses": [],
      "top5_sources": [
        "domains/CE/spec.md",
        "domains/CE/spec.md",
        "domains/CE/spec.md",
        "domains/CE/spec.md",
        "VARIABLE_INDEX.md"
      ],
      "top5_similarities": [
        0.6749,
        0.6509,
        0.6345,
        0.6182,
        0.6815
      ],
      "fact_recall": 1.0,
      "fact_hits": [
        "Events",
        "CETERM",
        "Topic",
        "Clinical Event"
      ],
      "fact_misses": [],
      "answer_preview": "## CE (Clinical Events) Domain\n\n### Observation Class\n\nThe CE domain belongs to the **Events** observation class. The Events class represents \"planned protocol milestones such as randomization and study completion, and occurrences, conditions, or incidents independent of planned study evaluations occurring during the study (e.g., adverse events) or prior to the study (e.g., medical history).\" **[Source: model/02_observation_classes.md]**\n\nThe CE domain is based on the Events general observation class and can use any variables in the Events class, including those found in the AE domain specific",
      "usage": {
        "prompt_tokens": 16770,
        "completion_tokens": 396,
        "total_tokens": 17166
      },
      "model": "deepseek/deepseek-chat",
      "elapsed_s": 4.33
    },
    {
      "id": "q61",
      "category": "single_domain",
      "question": "In the MB (Microbiology Specimen) domain, what is the MBTESTCD variable, what observation class is MB, and what is the codelist code for MBTESTCD?",
      "source_recall": 1.0,
      "source_hits": [
        "domains/MB/spec.md"
      ],
      "source_misses": [],
      "top5_sources": [
        "domains/MB/spec.md",
        "terminology/core/microbiology_part2.md",
        "domains/MB/assumptions.md",
        "domains/MB/examples.md",
        "VARIABLE_INDEX.md"
      ],
      "top5_similarities": [
        0.7379,
        0.5274,
        0.7557,
        0.6599,
        0.6529
      ],
      "fact_recall": 1.0,
      "fact_hits": [
        "Findings",
        "MBTESTCD",
        "C120527",
        "Topic"
      ],
      "fact_misses": [],
      "answer_preview": "Based on the retrieved context, here is the information for the MB domain:\n\n**1. MBTESTCD Variable Definition**\n\n- **Label:** Microbiology Test or Finding Short Name\n- **Type:** Char\n- **Role:** Topic\n- **Core:** Req\n- **Controlled Terms:** C120527\n- **CDISC Notes:** Short name of the measurement, test, or finding described in MBTEST. It can be used as a column name when converting a dataset from a vertical to a horizontal format. The value in MBTESTCD cannot be longer than 8 characters, nor can it start with a number (e.g., \"1TEST\" is not valid). MBTESTCD cannot contain characters other than ",
      "usage": {
        "prompt_tokens": 15914,
        "completion_tokens": 274,
        "total_tokens": 16188
      },
      "model": "deepseek/deepseek-chat",
      "elapsed_s": 2.92
    },
    {
      "id": "q62",
      "category": "single_domain",
      "question": "What is the SS (Subject Status) domain, what is the SSTESTCD variable, and what controlled terminology codelist does it use?",
      "source_recall": 1.0,
      "source_hits": [
        "domains/SS/spec.md"
      ],
      "source_misses": [],
      "top5_sources": [
        "domains/SS/spec.md",
        "terminology/core/other_part5.md",
        "VARIABLE_INDEX.md",
        "domains/SS/spec.md",
        "domains/SS/spec.md"
      ],
      "top5_similarities": [
        0.7493,
        0.5547,
        0.664,
        0.6925,
        0.6959
      ],
      "fact_recall": 1.0,
      "fact_hits": [
        "SSTESTCD",
        "C124305",
        "Findings",
        "Topic"
      ],
      "fact_misses": [],
      "answer_preview": "## SS (Subject Status) Domain\n\nThe **SS (Subject Status)** domain is a **Findings** class domain used to represent subject-level status assessments, such as survival status or follow-up availability status. It captures the state or condition of a subject at a given point in time.\n\n**[Source: domains/SS/spec.md]**\n\n---\n\n## SSTESTCD Variable\n\n| Attribute | Value |\n|-----------|-------|\n| **Label** | Status Short Name |\n| **Type** | Char |\n| **Role** | Topic |\n| **Core** | Req |\n| **Controlled Terms** | C124305 |\n| **CDISC Notes** | Short name of the status assessment described in SSTEST. It can ",
      "usage": {
        "prompt_tokens": 13679,
        "completion_tokens": 497,
        "total_tokens": 14176
      },
      "model": "deepseek/deepseek-chat",
      "elapsed_s": 4.52
    },
    {
      "id": "q63",
      "category": "single_domain",
      "question": "In the SC (Subject Characteristics) domain, what observation class is it and what is its dataset structure?",
      "source_recall": 1.0,
      "source_hits": [
        "domains/SC/spec.md"
      ],
      "source_misses": [],
      "top5_sources": [
        "domains/SC/spec.md",
        "domains/SC/spec.md",
        "domains/SC/spec.md",
        "domains/SC/spec.md",
        "domains/SC/assumptions.md"
      ],
      "top5_similarities": [
        0.6075,
        0.5412,
        0.5168,
        0.4906,
        0.625
      ],
      "fact_recall": 1.0,
      "fact_hits": [
        "Findings",
        "one record per characteristic",
        "Subject Characteristics"
      ],
      "fact_misses": [],
      "answer_preview": "Based on the provided context, the SC (Subject Characteristics) domain belongs to the **Findings** general observation class and has a dataset structure of **one record per characteristic per visit per subject**.\n\n**Evidence:**\n- The SC domain is explicitly described as being \"based on the Findings general observation class\" **[Source: domains/SC/assumptions.md — item_1]**.\n- The specification for the SC domain states its structure is \"One record per characteristic per visit per subject\" **[Source: domains/SC/examples.md — SC – Specification (p340)]**.",
      "usage": {
        "prompt_tokens": 13713,
        "completion_tokens": 116,
        "total_tokens": 13829
      },
      "model": "deepseek/deepseek-chat",
      "elapsed_s": 2.12
    },
    {
      "id": "q64",
      "category": "single_domain",
      "question": "What is the PC (Pharmacokinetics Concentrations) domain used for and what is the structure of one record in this dataset?",
      "source_recall": 1.0,
      "source_hits": [
        "domains/PC/spec.md"
      ],
      "source_misses": [],
      "top5_sources": [
        "domains/PC/spec.md",
        "domains/PC/spec.md",
        "domains/PC/spec.md",
        "domains/PC/spec.md",
        "domains/PC/assumptions.md"
      ],
      "top5_similarities": [
        0.5528,
        0.544,
        0.5291,
        0.5153,
        0.7165
      ],
      "fact_recall": 1.0,
      "fact_hits": [
        "Findings",
        "concentration",
        "analyte"
      ],
      "fact_misses": [],
      "answer_preview": "Based on the retrieved context, the PC (Pharmacokinetics Concentrations) domain is used to represent **plasma (or other specimen) drug concentration as a function of time**. The structure of one record is **one record per analyte per time point per reference time point (e.g., dosing event) per subject**.\n\n**Source:** [6] chapters/ch08_relationships.md — 8.6.2 Guidelines for Forming New Domains\n\nThe PC domain is classified as a **Findings** domain. The specification states it contains \"Pharmacokinetics Concentrations — Findings\" with a structure of \"One record per sample characteristic or time-",
      "usage": {
        "prompt_tokens": 14103,
        "completion_tokens": 236,
        "total_tokens": 14339
      },
      "model": "deepseek/deepseek-chat",
      "elapsed_s": 3.02
    },
    {
      "id": "q65",
      "category": "single_domain",
      "question": "In the DA (Product Accountability) domain, what observation class does it belong to and what is the structure of the dataset?",
      "source_recall": 1.0,
      "source_hits": [
        "domains/DA/spec.md"
      ],
      "source_misses": [],
      "top5_sources": [
        "domains/DA/spec.md",
        "domains/DA/spec.md",
        "domains/DA/spec.md",
        "domains/DA/spec.md",
        "VARIABLE_INDEX.md"
      ],
      "top5_similarities": [
        0.5267,
        0.487,
        0.4531,
        0.4429,
        0.552
      ],
      "fact_recall": 0.6667,
      "fact_hits": [
        "Findings",
        "Product Accountability"
      ],
      "fact_misses": [
        "per subject"
      ],
      "answer_preview": "Based on the retrieved context, the DA (Product Accountability) domain belongs to the **Findings** observation class, and its structure is **one record per finding**.\n\n**Evidence:**\n\n1.  **Observation Class:** The DA domain is explicitly listed under the Findings class in the knowledge base index. The model definition for DA also references the \"Findings class definition\" **[Source: domains/DA/spec.md — Model Definition]**.\n\n2.  **Structure:** The SDTM model defines the Findings Observation Class as having a structure of **\"One Record per Finding\"** **[Source: model/02_observation_classes.md —",
      "usage": {
        "prompt_tokens": 12813,
        "completion_tokens": 274,
        "total_tokens": 13087
      },
      "model": "deepseek/deepseek-chat",
      "elapsed_s": 3.82
    },
    {
      "id": "q66",
      "category": "cross_domain",
      "question": "Which SDTM domains include the VISITNUM timing variable?",
      "source_recall": 1.0,
      "source_hits": [
        "VARIABLE_INDEX.md"
      ],
      "source_misses": [],
      "top5_sources": [
        "VARIABLE_INDEX.md",
        "domains/EX/assumptions.md",
        "chapters/ch04_general_assumptions.md",
        "domains/SU/assumptions.md",
        "model/01_concepts_and_terms.md"
      ],
      "top5_similarities": [
        0.5448,
        0.6769,
        0.6828,
        0.685,
        11.1925
      ],
      "fact_recall": 0.25,
      "fact_hits": [
        "VISITNUM"
      ],
      "fact_misses": [
        "Visit Number",
        "LB",
        "VS"
      ],
      "answer_preview": "Based on the provided context, I can identify that **VISITNUM** is a timing variable used across multiple SDTM domains, but the context does not provide a comprehensive list of all domains that include it.\n\nFrom the retrieved context, I can confirm the following:\n\n1. **EX (Exposure)** domain includes VISITNUM as an additional timing variable, but only when exposure is confined within a clinical encounter (e.g., injection administered at clinic). It is **not** appropriate for home-based dosing. **[Source: domains/EX/assumptions.md, item 4a]**\n\n2. **SU (Substance Use)** domain includes VISITNUM ",
      "usage": {
        "prompt_tokens": 13996,
        "completion_tokens": 361,
        "total_tokens": 14357
      },
      "model": "deepseek/deepseek-chat",
      "elapsed_s": 4.05
    },
    {
      "id": "q67",
      "category": "cross_domain",
      "question": "Many SDTM variables use the No Yes Response codelist C66742. How many variables reference it and give some examples of AE seriousness variables that use it.",
      "source_recall": 1.0,
      "source_hits": [
        "VARIABLE_INDEX.md"
      ],
      "source_misses": [],
      "top5_sources": [
        "VARIABLE_INDEX.md",
        "domains/AE/spec.md",
        "terminology/core/general_part4.md",
        "domains/AE/examples.md",
        "chapters/ch04_general_assumptions.md"
      ],
      "top5_similarities": [
        0.4669,
        0.5381,
        0.6495,
        0.5542,
        0.5827
      ],
      "fact_recall": 1.0,
      "fact_hits": [
        "C66742",
        "AESER",
        "AESDTH"
      ],
      "fact_misses": [],
      "answer_preview": "Based on the knowledge base, the **No Yes Response (C66742)** codelist is referenced by multiple variables across different domains. Here is the breakdown:\n\n## Number of Variables Referencing C66742\n\nThe knowledge base does not provide a single aggregated count of all variables using C66742. However, based on the available context, it is referenced by at least **13 variables in the AE domain alone**, plus variables in other domains such as CE and SV.\n\n## AE Seriousness Variables Using C66742\n\nFrom the AE domain specification, the following AE seriousness variables use the **No Yes Response (C6",
      "usage": {
        "prompt_tokens": 15246,
        "completion_tokens": 650,
        "total_tokens": 15896
      },
      "model": "deepseek/deepseek-chat",
      "elapsed_s": 6.24
    },
    {
      "id": "q68",
      "category": "cross_domain",
      "question": "Which domains use the Completion Status codelist (C66789) for their --STAT variable, and what does --STAT indicate?",
      "source_recall": 1.0,
      "source_hits": [
        "VARIABLE_INDEX.md"
      ],
      "source_misses": [],
      "top5_sources": [
        "VARIABLE_INDEX.md",
        "terminology/core/general_part4.md",
        "domains/SS/spec.md",
        "domains/SC/spec.md",
        "domains/IS/spec.md"
      ],
      "top5_similarities": [
        0.5065,
        0.4661,
        0.685,
        0.6915,
        0.6622
      ],
      "fact_recall": 1.0,
      "fact_hits": [
        "C66789",
        "STAT",
        "Completion Status"
      ],
      "fact_misses": [],
      "answer_preview": "Based on the retrieved context, the Completion Status codelist (C66789) is used by the following domains for their `--STAT` variable:\n\n| Domain | Variable | What `--STAT` Indicates |\n|--------|----------|------------------------|\n| **SS** (Subject Status) | SSSTAT | Used to indicate a status assessment was not done. Should be null if a result exists in SSORRES. **[Source: domains/SS/spec.md]** |\n| **SC** (Subject Characteristics) | SCSTAT | Used to indicate that the measurement was not done. Should be null if a result exists in SCORRES. **[Source: domains/SC/spec.md]** |\n| **IS** (Immunogenici",
      "usage": {
        "prompt_tokens": 9495,
        "completion_tokens": 822,
        "total_tokens": 10317
      },
      "model": "deepseek/deepseek-chat",
      "elapsed_s": 6.26
    },
    {
      "id": "q69",
      "category": "cross_domain",
      "question": "The dose units codelist C71620 is shared across many Intervention and Findings domains. Which variables such as EXDOSU and CMDOSU reference it?",
      "source_recall": 1.0,
      "source_hits": [
        "VARIABLE_INDEX.md"
      ],
      "source_misses": [],
      "top5_sources": [
        "VARIABLE_INDEX.md",
        "terminology/core/general_part5.md",
        "domains/CM/spec.md",
        "domains/EX/spec.md",
        "domains/CM/spec.md"
      ],
      "top5_similarities": [
        0.5647,
        0.4805,
        0.7093,
        0.6827,
        0.6319
      ],
      "fact_recall": 1.0,
      "fact_hits": [
        "C71620",
        "EXDOSU",
        "CMDOSU"
      ],
      "fact_misses": [],
      "answer_preview": "Based on the retrieved context, the dose units codelist **C71620** is referenced by the following variables across multiple Intervention domains:\n\n1. **EC (Exposure as Collected)**\n   - **ECDOSU** — Dose Units (Variable Qualifier, Core: Exp)\n   - **[Source: domains/EC/spec.md -- ECDOSU]**\n\n2. **CM (Concomitant/Prior Medications)**\n   - **CMDOSU** — Dose Units (Variable Qualifier, Core: Perm)\n   - **[Source: domains/CM/spec.md -- CMDOSU]**\n\n3. **EX (Exposure)**\n   - **EXDOSU** — Dose Units (Variable Qualifier, Core: Exp)\n   - **[Source: domains/EX/spec.md -- EXDOSU]**\n\n4. **ML (Meal Data)**\n   ",
      "usage": {
        "prompt_tokens": 15091,
        "completion_tokens": 335,
        "total_tokens": 15426
      },
      "model": "deepseek/deepseek-chat",
      "elapsed_s": 4.02
    },
    {
      "id": "q70",
      "category": "cross_domain",
      "question": "How is the RELSUB (Related Subjects) dataset used to represent relationships between two subjects, and what does the RSUBJID variable hold?",
      "source_recall": 1.0,
      "source_hits": [
        "domains/RELSUB/spec.md"
      ],
      "source_misses": [],
      "top5_sources": [
        "domains/RELSUB/spec.md",
        "domains/RELSUB/spec.md",
        "domains/RELSUB/spec.md",
        "domains/RELSUB/spec.md",
        "chapters/ch08_relationships.md"
      ],
      "top5_similarities": [
        0.7436,
        0.6211,
        0.562,
        0.4966,
        0.7848
      ],
      "fact_recall": 1.0,
      "fact_hits": [
        "RSUBJID",
        "USUBJID",
        "SREL"
      ],
      "fact_misses": [],
      "answer_preview": "Based on the provided context, the RELSUB (Related Subjects) dataset is used to represent relationships between two study subjects. The RSUBJID variable holds the identifier of the related subject or pool.\n\nHere are the specific details:\n\n**How RELSUB Represents Relationships Between Two Subjects:**\n\n1.  **Directional Representation:** Every relationship between two study subjects is represented in RELSUB as **two directional records**. One record has the first subject's identifier in `USUBJID` and the second subject's identifier in `RSUBJID`. The second record reverses this, with the second s",
      "usage": {
        "prompt_tokens": 12329,
        "completion_tokens": 503,
        "total_tokens": 12832
      },
      "model": "deepseek/deepseek-chat",
      "elapsed_s": 5.01
    },
    {
      "id": "q71",
      "category": "cross_domain",
      "question": "What is the EVAL (Evaluator) codelist C78735 and which domains' --EVAL variables share it?",
      "source_recall": 1.0,
      "source_hits": [
        "VARIABLE_INDEX.md"
      ],
      "source_misses": [],
      "top5_sources": [
        "VARIABLE_INDEX.md",
        "terminology/core/general_part2.md",
        "domains/CO/spec.md",
        "domains/TU/spec.md",
        "domains/CO/spec.md"
      ],
      "top5_similarities": [
        0.448,
        0.4083,
        0.6115,
        0.581,
        0.6168
      ],
      "fact_recall": 1.0,
      "fact_hits": [
        "C78735",
        "EVAL",
        "PE"
      ],
      "fact_misses": [],
      "answer_preview": "## C78735 — Evaluator Codelist\n\n**C78735** is the CDISC controlled terminology codelist for **Evaluator**, used by the `--EVAL` variable across multiple SDTM domains. It is **extensible** (Non-extensible: No), meaning sponsors may add values as needed.\n\nThe codelist includes values such as:\n- `ADJUDICATION COMMITTEE`\n- `INDEPENDENT ASSESSOR`\n- `INVESTIGATOR`\n- `RADIOLOGIST`\n\n**[Source: terminology/core/general_part2.md]**\n\n---\n\n## Domains Sharing C78735 via `--EVAL`\n\nThe following domains use the `--EVAL` variable with **C78735** as the controlled terminology:\n\n| Domain | Variable | Role | Cor",
      "usage": {
        "prompt_tokens": 10054,
        "completion_tokens": 700,
        "total_tokens": 10754
      },
      "model": "deepseek/deepseek-chat",
      "elapsed_s": 6.37
    },
    {
      "id": "q72",
      "category": "cross_domain",
      "question": "How do the PC (Pharmacokinetics Concentrations) and PP (Pharmacokinetic Parameters) domains relate to each other, and why are they kept as two separate domains?",
      "source_recall": 1.0,
      "source_hits": [
        "chapters/ch08_relationships.md"
      ],
      "source_misses": [],
      "top5_sources": [
        "domains/PC/spec.md",
        "domains/PP/spec.md",
        "domains/PC/assumptions.md",
        "domains/PC/assumptions.md",
        "domains/PC/assumptions.md"
      ],
      "top5_similarities": [
        0.5578,
        0.5491,
        0.733,
        0.6403,
        0.5665
      ],
      "fact_recall": 1.0,
      "fact_hits": [
        "PC",
        "PP",
        "parameter"
      ],
      "fact_misses": [],
      "answer_preview": "# PC and PP Domain Relationship\n\n## Why Two Separate Domains\n\nPC and PP are kept as separate domains because they represent **different topics** with **different data structures**, as described in the SDTMIG:\n\n> \"In the Pharmacokinetics domain example, the topic for PC is plasma (or other specimen) drug concentration as a function of time, and the structure is 1 record per analyte per time point per reference time point (e.g., dosing event) per subject. PP contains characteristics of the time-concentration curve (e.g., AUC, Cmax, Tmax, half-life) and elimination rate constant; the structure is",
      "usage": {
        "prompt_tokens": 16051,
        "completion_tokens": 1066,
        "total_tokens": 17117
      },
      "model": "deepseek/deepseek-chat",
      "elapsed_s": 9.24
    },
    {
      "id": "q73",
      "category": "cross_domain",
      "question": "Which special-purpose and relationship domains carry the RDOMAIN variable, and what does RDOMAIN identify?",
      "source_recall": 0.0,
      "source_hits": [],
      "source_misses": [
        "model/06_relationship_datasets.md"
      ],
      "top5_sources": [
        "VARIABLE_INDEX.md",
        "domains/RELREC/spec.md",
        "chapters/ch08_relationships.md",
        "domains/SUPPQUAL/spec.md",
        "domains/RELREC/assumptions.md"
      ],
      "top5_similarities": [
        0.4962,
        0.7528,
        17.7327,
        0.7491,
        16.2389
      ],
      "fact_recall": 0.6667,
      "fact_hits": [
        "RDOMAIN",
        "parent"
      ],
      "fact_misses": [
        "2-character"
      ],
      "answer_preview": "Based on the provided context, the **RDOMAIN** variable appears in the following special-purpose and relationship domains:\n\n1.  **RELREC (Related Records)** — Role: Identifier, Core: Req\n2.  **SUPPQUAL (Supplemental Qualifiers)** — Role: Identifier, Core: Req\n3.  **CO (Comments)** — Role: Record Qualifier, Core: Perm\n\n**[Source: domains/RELREC/spec.md, domains/SUPPQUAL/spec.md, domains/CO/spec.md]**\n\n**What RDOMAIN identifies:**\n\nRDOMAIN identifies the **parent domain** to which a record in these special-purpose/relationship datasets is related. It contains the two-character abbreviation (doma",
      "usage": {
        "prompt_tokens": 14150,
        "completion_tokens": 352,
        "total_tokens": 14502
      },
      "model": "deepseek/deepseek-chat",
      "elapsed_s": 4.12
    },
    {
      "id": "q74",
      "category": "cross_domain",
      "question": "How are Supplemental Qualifier datasets named per parent domain (for example for AE and CM), and what variable ties each SUPP-- record back to its parent domain?",
      "source_recall": 1.0,
      "source_hits": [
        "model/06_relationship_datasets.md"
      ],
      "source_misses": [],
      "top5_sources": [
        "domains/AE/spec.md",
        "domains/CM/spec.md",
        "model/06_relationship_datasets.md",
        "domains/SUPPQUAL/assumptions.md",
        "chapters/ch08_relationships.md"
      ],
      "top5_similarities": [
        0.4955,
        0.4615,
        0.8137,
        0.7436,
        0.7453
      ],
      "fact_recall": 1.0,
      "fact_hits": [
        "suppae",
        "RDOMAIN",
        "supp--"
      ],
      "fact_misses": [],
      "answer_preview": "## Supplemental Qualifier Dataset Naming and Parent Domain Linkage\n\n### Dataset Naming Convention\n\nSupplemental Qualifier datasets are named using the pattern **SUPP--**, where \"--\" is replaced by the 2-character domain code of the parent domain. This creates a one-to-one correspondence between a domain dataset and its Supplemental Qualifier dataset **[Source: chapters/ch08_relationships.md §8.4.2]**.\n\nExamples:\n- **suppae.xpt** — Supplemental Qualifiers for the Adverse Events (AE) domain\n- **suppcm.xpt** — Supplemental Qualifiers for the Concomitant/Prior Medications (CM) domain\n\n> **Note:** ",
      "usage": {
        "prompt_tokens": 17655,
        "completion_tokens": 711,
        "total_tokens": 18366
      },
      "model": "deepseek/deepseek-chat",
      "elapsed_s": 6.52
    },
    {
      "id": "q75",
      "category": "cross_domain",
      "question": "In SDTM, which identifier variables besides USUBJID can identify the source of a record across the general observation classes (for example for pooled or device data)?",
      "source_recall": 1.0,
      "source_hits": [
        "model/02_observation_classes.md"
      ],
      "source_misses": [],
      "top5_sources": [
        "model/02_observation_classes.md",
        "model/02_observation_classes.md",
        "domains/SUPPQUAL/spec.md",
        "model/01_concepts_and_terms.md",
        "domains/RELSUB/spec.md"
      ],
      "top5_similarities": [
        0.6708,
        0.6648,
        0.6786,
        21.0629,
        0.6767
      ],
      "fact_recall": 1.0,
      "fact_hits": [
        "USUBJID",
        "POOLID",
        "SPDEVID"
      ],
      "fact_misses": [],
      "answer_preview": "Based on the SDTM knowledge base, the following identifier variables besides USUBJID can identify the source of a record across the general observation classes:\n\n1. **POOLID** (Pool Identifier) — Used for results that are not assignable to a specific subject **[Source: model/02_observation_classes.md §3.1.4]**\n2. **SPDEVID** (Sponsor Device Identifier) — Identifies a sponsor-defined device **[Source: model/02_observation_classes.md §3.1.4]**\n\nAdditionally, for Associated Persons data, the following identifiers are used:\n\n3. **APID** (Associated Persons Identifier) — Identifier for a single ass",
      "usage": {
        "prompt_tokens": 14542,
        "completion_tokens": 314,
        "total_tokens": 14856
      },
      "model": "deepseek/deepseek-chat",
      "elapsed_s": 3.22
    },
    {
      "id": "q76",
      "category": "cross_domain",
      "question": "How do the AP (Associated Persons) domains link non-subject persons back to study subjects, and what role do RSUBJID and SREL play?",
      "source_recall": 1.0,
      "source_hits": [
        "model/04_associated_persons.md"
      ],
      "source_misses": [],
      "top5_sources": [
        "VARIABLE_INDEX.md",
        "model/06_relationship_datasets.md",
        "model/04_associated_persons.md",
        "chapters/ch08_relationships.md",
        "domains/RELSUB/assumptions.md"
      ],
      "top5_similarities": [
        0.5794,
        0.7014,
        0.6695,
        0.6671,
        0.6962
      ],
      "fact_recall": 1.0,
      "fact_hits": [
        "APID",
        "RSUBJID",
        "SREL"
      ],
      "fact_misses": [],
      "answer_preview": "## AP Domains: Linking Non-Subject Persons to Study Subjects\n\nAP (Associated Persons) domains link non-subject persons back to study subjects through a dedicated set of identifier variables, with **RSUBJID** and **SREL** serving as the primary linking mechanism.\n\n### The Linking Mechanism\n\nAP domains use three linking variables to establish relationships:\n\n1. **RSUBJID** (Related Subject or Pool Identifier) — Char, Identifier role\n2. **RDEVID** (Related Device Identifier) — Char, Identifier role  \n3. **SREL** (Subject, Device, or Study Relationship) — Char, Record Qualifier role\n\n**[Source: mo",
      "usage": {
        "prompt_tokens": 12509,
        "completion_tokens": 967,
        "total_tokens": 13476
      },
      "model": "deepseek/deepseek-chat",
      "elapsed_s": 8.54
    },
    {
      "id": "q77",
      "category": "cross_domain",
      "question": "The EPOCH timing variable appears in many domains. List several domains where EPOCH is used and state what kind of variable it is.",
      "source_recall": 1.0,
      "source_hits": [
        "VARIABLE_INDEX.md"
      ],
      "source_misses": [],
      "top5_sources": [
        "VARIABLE_INDEX.md",
        "domains/TA/assumptions.md",
        "chapters/ch04_general_assumptions.md",
        "domains/SR/spec.md",
        "domains/TE/examples.md"
      ],
      "top5_similarities": [
        0.4727,
        0.7118,
        0.6476,
        0.6753,
        13.9737
      ],
      "fact_recall": 0.75,
      "fact_hits": [
        "EPOCH",
        "Timing",
        "EX"
      ],
      "fact_misses": [
        "AE"
      ],
      "answer_preview": "Based on the retrieved context, the EPOCH variable is used in many domains across all three general observation classes. It is a **Timing** variable of type **Char**, with controlled terms from codelist **C99079**, and a **Permissible** core.\n\nHere are several domains where EPOCH is used:\n\n1.  **EC (Exposure as Collected)** — Interventions class **[Source: VARIABLE_INDEX.md]**\n2.  **SR (Skin Response)** — Findings class **[Source: domains/SR/spec.md]**\n3.  **UR (Urinary System Findings)** — Findings class **[Source: domains/UR/spec.md]**\n4.  **DS (Disposition)** — Events class **[Source: domai",
      "usage": {
        "prompt_tokens": 14210,
        "completion_tokens": 310,
        "total_tokens": 14520
      },
      "model": "deepseek/deepseek-chat",
      "elapsed_s": 3.46
    },
    {
      "id": "q78",
      "category": "concept",
      "question": "What are the rules for values of --TESTCD variables in SDTM? Describe the maximum length and which characters are allowed.",
      "source_recall": 1.0,
      "source_hits": [
        "chapters/ch04_general_assumptions.md"
      ],
      "source_misses": [],
      "top5_sources": [
        "chapters/ch04_general_assumptions.md",
        "chapters/ch04_general_assumptions.md",
        "chapters/ch04_general_assumptions.md",
        "domains/QS/assumptions.md",
        "domains/FT/assumptions.md"
      ],
      "top5_similarities": [
        0.6937,
        0.6892,
        0.615,
        0.5933,
        0.5933
      ],
      "fact_recall": 0.6667,
      "fact_hits": [
        "8 characters",
        "letters, numbers, or underscores"
      ],
      "fact_misses": [
        "cannot start with a number"
      ],
      "answer_preview": "## Rules for --TESTCD Variables in SDTM\n\n### Maximum Length\nValues of **--TESTCD** must be limited to **8 characters**. This restriction exists to avoid possible incompatibility with SAS v5 transport files. **[Source: chapters/ch04_general_assumptions.md §4.2.1]**\n\n### Allowed Characters\nValues of --TESTCD **cannot**:\n- Start with a number (e.g., \"1TEST\" is not valid)\n- Contain characters other than **letters, numbers, or underscores**\n\n**[Source: chapters/ch04_general_assumptions.md §4.2.1]**\n\nThis is consistently documented across domain specifications. For example:\n- **CVTESTCD**: \"The valu",
      "usage": {
        "prompt_tokens": 11883,
        "completion_tokens": 543,
        "total_tokens": 12426
      },
      "model": "deepseek/deepseek-chat",
      "elapsed_s": 5.18
    },
    {
      "id": "q79",
      "category": "concept",
      "question": "How does SDTM represent a missing value, and what should be done when a test is not performed?",
      "source_recall": 1.0,
      "source_hits": [
        "chapters/ch04_general_assumptions.md"
      ],
      "source_misses": [],
      "top5_sources": [
        "chapters/ch04_general_assumptions.md",
        "chapters/ch04_general_assumptions.md",
        "chapters/ch04_general_assumptions.md",
        "terminology/core/other_part4.md",
        "terminology/supplementary/supplementary_part5.md"
      ],
      "top5_similarities": [
        0.6134,
        0.5564,
        0.5115,
        0.5714,
        0.5688
      ],
      "fact_recall": 1.0,
      "fact_hits": [
        "null",
        "NOT DONE",
        "STAT",
        "REASND"
      ],
      "fact_misses": [],
      "answer_preview": "Based on the retrieved context, SDTM represents missing values and handles \"not performed\" tests as follows:\n\n## Missing Values\n\nMissing values are represented as **null** in SDTM datasets. **[Source: chapters/ch04_general_assumptions.md -- 4.2.5 Convention for Missing Values]**\n\n## Tests Not Performed\n\nWhen a test is not performed, the following rules apply:\n\n### Required Variables\n- **--STAT** must be populated with the value `\"NOT DONE\"` **[Source: chapters/ch04_general_assumptions.md -- 4.5.1 Original and Standardized Results]**\n- **--REASND** should be populated with the reason (if explic",
      "usage": {
        "prompt_tokens": 14487,
        "completion_tokens": 633,
        "total_tokens": 15120
      },
      "model": "deepseek/deepseek-chat",
      "elapsed_s": 6.48
    },
    {
      "id": "q80",
      "category": "concept",
      "question": "What is the convention for using 'Yes' and 'No' values in SDTM variables, and when is it acceptable to populate only one value?",
      "source_recall": 1.0,
      "source_hits": [
        "chapters/ch04_general_assumptions.md"
      ],
      "source_misses": [],
      "top5_sources": [
        "chapters/ch04_general_assumptions.md",
        "chapters/ch04_general_assumptions.md",
        "chapters/ch04_general_assumptions.md",
        "chapters/ch04_general_assumptions.md",
        "chapters/ch03_submitting_data.md"
      ],
      "top5_similarities": [
        0.6584,
        0.5395,
        0.5168,
        0.4937,
        0.5223
      ],
      "fact_recall": 1.0,
      "fact_hits": [
        "Yes",
        "No",
        "single checkbox"
      ],
      "fact_misses": [],
      "answer_preview": "## Convention for Using \"Yes\" and \"No\" Values in SDTM Variables\n\n### General Rule\n\nVariables where the response is \"Yes\" or \"No\" (\"Y\" or \"N\") should **normally be populated for both \"Y\" and \"N\" responses**. This eliminates confusion regarding whether a blank response indicates \"N\" or is a missing value. **[Source: chapters/ch04_general_assumptions.md — 4.3.7 Use of \"Yes\" and \"No\" Values]**\n\n### Exception — When Only One Value Is Acceptable\n\nSome variables are collected or derived in a manner that allows only one response, such as when a single checkbox indicates \"Yes\". In such situations, wher",
      "usage": {
        "prompt_tokens": 17132,
        "completion_tokens": 812,
        "total_tokens": 17944
      },
      "model": "deepseek/deepseek-chat",
      "elapsed_s": 7.09
    },
    {
      "id": "q81",
      "category": "concept",
      "question": "What rules govern the two-character DOMAIN code in SDTM? What characters are allowed for the first and second characters?",
      "source_recall": 1.0,
      "source_hits": [
        "chapters/ch04_general_assumptions.md"
      ],
      "source_misses": [],
      "top5_sources": [
        "chapters/ch04_general_assumptions.md",
        "domains/TM/spec.md",
        "chapters/ch04_general_assumptions.md",
        "domains/DA/spec.md",
        "chapters/ch04_general_assumptions.md"
      ],
      "top5_similarities": [
        0.7129,
        0.6583,
        14.2372,
        0.6435,
        12.8348
      ],
      "fact_recall": 0.6667,
      "fact_hits": [
        "A-Z",
        "0-9"
      ],
      "fact_misses": [
        "2-character"
      ],
      "answer_preview": "Based on the retrieved context, the rules governing the two-character DOMAIN code in SDTM are as follows:\n\nThe two-character domain identifier (DOMAIN) is used as a prefix for most variable names in a domain dataset to minimize the risk of difficulty when merging or joining domains for reporting purposes. **[Source: chapters/ch04_general_assumptions.md -- 4.2.2 Two-character Domain Identifier]**\n\n**Allowed Characters:**\n- **First character:** Limited to A-Z (uppercase letters only)\n- **Second character:** Limited to A-Z (uppercase letters) or 0-9 (digits)\n\n**Disallowed Characters:** No other c",
      "usage": {
        "prompt_tokens": 12946,
        "completion_tokens": 371,
        "total_tokens": 13317
      },
      "model": "deepseek/deepseek-chat",
      "elapsed_s": 3.98
    },
    {
      "id": "q82",
      "category": "concept",
      "question": "Which identifier variables are required in all domains based on the three general observation classes, and which subject-level identifier must each include?",
      "source_recall": 1.0,
      "source_hits": [
        "model/02_observation_classes.md"
      ],
      "source_misses": [],
      "top5_sources": [
        "model/02_observation_classes.md",
        "chapters/ch04_general_assumptions.md",
        "model/02_observation_classes.md",
        "chapters/ch04_general_assumptions.md",
        "domains/DM/assumptions.md"
      ],
      "top5_similarities": [
        0.7071,
        0.6441,
        0.6224,
        0.5653,
        0.5557
      ],
      "fact_recall": 1.0,
      "fact_hits": [
        "STUDYID",
        "DOMAIN",
        "SEQ",
        "USUBJID"
      ],
      "fact_misses": [],
      "answer_preview": "Based on the SDTM model, the identifier variables required in all domains based on the three general observation classes (Interventions, Events, and Findings) are:\n\n**STUDYID, DOMAIN, and --SEQ** are required in all domains based on one of the 3 general observation classes. **[Source: model/02_observation_classes.md]**\n\nAdditionally, each general class domain **must also include at least 1 of the following subject identifiers**: USUBJID, SPDEVID, or POOLID. **[Source: model/02_observation_classes.md]**\n\n### Variable Definitions\n\n| Variable | Label | Type | Role | Core |\n|----------|-------|---",
      "usage": {
        "prompt_tokens": 13733,
        "completion_tokens": 535,
        "total_tokens": 14268
      },
      "model": "deepseek/deepseek-chat",
      "elapsed_s": 5.08
    },
    {
      "id": "q83",
      "category": "concept",
      "question": "What is RELREC and how is it used to relate records or datasets to one another in SDTM? What does the RDOMAIN variable do in RELREC?",
      "source_recall": 1.0,
      "source_hits": [
        "model/06_relationship_datasets.md"
      ],
      "source_misses": [],
      "top5_sources": [
        "domains/RELREC/spec.md",
        "domains/RELREC/spec.md",
        "domains/RELREC/spec.md",
        "domains/RELREC/spec.md",
        "domains/RELREC/assumptions.md"
      ],
      "top5_similarities": [
        0.6849,
        0.6512,
        0.5874,
        0.5851,
        0.7576
      ],
      "fact_recall": 1.0,
      "fact_hits": [
        "RELREC",
        "RDOMAIN",
        "Identifier"
      ],
      "fact_misses": [],
      "answer_preview": "Based on the SDTMIG v3.4 knowledge base, here is a detailed explanation of RELREC and the RDOMAIN variable.\n\n### What is RELREC?\n\nRELREC (Related Records) is a special-purpose dataset used to describe relationships between records for a subject (peer records) and relationships between entire datasets (e.g., parent-child). It is defined in the SDTM model as a relationship dataset. **[Source: model/06_relationship_datasets.md]**\n\n**Structure:** One record per related record, group of records, or dataset. **[Source: model/06_relationship_datasets.md]**\n\n### How RELREC Relates Records or Datasets\n",
      "usage": {
        "prompt_tokens": 15016,
        "completion_tokens": 979,
        "total_tokens": 15995
      },
      "model": "deepseek/deepseek-chat",
      "elapsed_s": 9.33
    },
    {
      "id": "q84",
      "category": "concept",
      "question": "When deciding whether data belong to the Events, Interventions, or Findings observation class, what is the definition of an intervention versus an event?",
      "source_recall": 1.0,
      "source_hits": [
        "chapters/ch08_relationships.md"
      ],
      "source_misses": [],
      "top5_sources": [
        "chapters/ch08_relationships.md",
        "chapters/ch08_relationships.md",
        "chapters/ch04_general_assumptions.md",
        "domains/FA/assumptions.md",
        "domains/FA/assumptions.md"
      ],
      "top5_similarities": [
        0.6892,
        0.6095,
        0.5137,
        0.6076,
        0.5521
      ],
      "fact_recall": 1.0,
      "fact_hits": [
        "intervention",
        "event",
        "physiological effect"
      ],
      "fact_misses": [],
      "answer_preview": "Based on the SDTMIG v3.4 knowledge base, the definitions of an intervention versus an event are as follows:\n\n**Intervention**: An intervention is something that is done to a subject (possibly by the subject) that is expected to have a physiological effect. This concept of intended effect makes interventions relatively easy to recognize, although there are gray areas around some testing procedures. For example, exercise stress tests are designed to produce and then measure certain physiological effects. The measurements from such a testing procedure are findings, although some aspects of the pr",
      "usage": {
        "prompt_tokens": 14302,
        "completion_tokens": 280,
        "total_tokens": 14582
      },
      "model": "deepseek/deepseek-chat",
      "elapsed_s": 3.37
    },
    {
      "id": "q85",
      "category": "concept",
      "question": "What are Associated Persons in SDTM, and how are AP domains named relative to the standard domain codes?",
      "source_recall": 1.0,
      "source_hits": [
        "model/04_associated_persons.md"
      ],
      "source_misses": [],
      "top5_sources": [
        "model/04_associated_persons.md",
        "chapters/ch04_general_assumptions.md",
        "chapters/ch01_introduction.md",
        "model/01_concepts_and_terms.md",
        "chapters/ch02_fundamentals.md"
      ],
      "top5_similarities": [
        0.7784,
        0.5731,
        0.5322,
        0.5676,
        0.5432
      ],
      "fact_recall": 1.0,
      "fact_hits": [
        "Associated Persons",
        "AP",
        "APDM"
      ],
      "fact_misses": [],
      "answer_preview": "## Associated Persons in SDTM\n\n**Associated Persons** are individuals other than study subjects who can be associated with a study, a particular study subject, or a device used in the study. Their data structures are based on the same general observation class models (Interventions, Events, Findings) or special-purpose domain structures used for study subjects, with the application of specific AP rules. **[Source: model/04_associated_persons.md]**\n\n### AP Domain Naming Convention\n\nAP domains use the domain code prefix `AP` followed by the relevant domain code. For example, associated persons d",
      "usage": {
        "prompt_tokens": 14998,
        "completion_tokens": 684,
        "total_tokens": 15682
      },
      "model": "deepseek/deepseek-chat",
      "elapsed_s": 6.56
    },
    {
      "id": "q86",
      "category": "concept",
      "question": "What is an Expected (Exp) Core variable in SDTM, and what must be done in the Define-XML when a study does not collect the data item for an Expected variable?",
      "source_recall": 1.0,
      "source_hits": [
        "chapters/ch04_general_assumptions.md"
      ],
      "source_misses": [],
      "top5_sources": [
        "chapters/ch04_general_assumptions.md",
        "chapters/ch04_general_assumptions.md",
        "model/01_concepts_and_terms.md",
        "chapters/ch03_submitting_data.md",
        "domains/AE/assumptions.md"
      ],
      "top5_similarities": [
        0.7307,
        0.5805,
        0.5625,
        0.5376,
        0.492
      ],
      "fact_recall": 1.0,
      "fact_hits": [
        "Expected",
        "null",
        "Define-XML"
      ],
      "fact_misses": [],
      "answer_preview": "## Expected (Exp) Core Variable in SDTM\n\nAn **Expected (Exp)** variable is defined as \"any variable necessary to make a record useful in the context of a specific domain.\" Expected variables must always be included in the dataset, but unlike Required variables, they may contain null values when the data item was not collected or is not applicable for a particular record. **[Source: chapters/ch04_general_assumptions.md -- 4.1.5 SDTM Core Designations]**\n\n### Core Designation Rules\n\n| Core Value | Meaning | Rule |\n|------------|---------|------|\n| **Exp** (Expected) | Must be included in the dat",
      "usage": {
        "prompt_tokens": 15747,
        "completion_tokens": 547,
        "total_tokens": 16294
      },
      "model": "deepseek/deepseek-chat",
      "elapsed_s": 5.34
    },
    {
      "id": "q87",
      "category": "concept",
      "question": "How does SDTM decide whether assessments of an event should be stored as Supplemental Qualifiers versus in the Findings About (FA) domain?",
      "source_recall": 1.0,
      "source_hits": [
        "chapters/ch08_relationships.md"
      ],
      "source_misses": [],
      "top5_sources": [
        "domains/FA/spec.md",
        "domains/FA/spec.md",
        "domains/FA/spec.md",
        "domains/FA/spec.md",
        "domains/FA/assumptions.md"
      ],
      "top5_similarities": [
        0.5036,
        0.489,
        0.4871,
        0.4618,
        0.7222
      ],
      "fact_recall": 1.0,
      "fact_hits": [
        "Findings About",
        "supplemental qualifier",
        "event"
      ],
      "fact_misses": [],
      "answer_preview": "## Decision Criteria: Supplemental Qualifiers vs. Findings About (FA) Domain\n\nThe SDTMIG provides specific criteria to determine whether assessments of an event should be stored as Supplemental Qualifiers (SUPP--) or in the Findings About (FA) domain. The key distinction is whether the data represent **additional qualifiers for an existing observation** (SUPP--) versus **separate observations about an event or intervention** (FA).\n\n---\n\n### 1. Supplemental Qualifiers (SUPP--) — When to Use\n\nSupplemental Qualifiers are used for **non-standard variables (NSVs)** that provide additional attribute",
      "usage": {
        "prompt_tokens": 16257,
        "completion_tokens": 1516,
        "total_tokens": 17773
      },
      "model": "deepseek/deepseek-chat",
      "elapsed_s": 13.86
    },
    {
      "id": "q88",
      "category": "concept",
      "question": "What distinguishes ETCD, TSPARMCD, and ARMCD from --TESTCD with respect to character restrictions and maximum lengths in SDTM?",
      "source_recall": 1.0,
      "source_hits": [
        "chapters/ch04_general_assumptions.md"
      ],
      "source_misses": [],
      "top5_sources": [
        "domains/DM/spec.md",
        "chapters/ch04_general_assumptions.md",
        "domains/TA/spec.md",
        "domains/TS/spec.md",
        "domains/DM/spec.md"
      ],
      "top5_similarities": [
        0.6434,
        0.6025,
        0.6254,
        0.6624,
        0.6089
      ],
      "fact_recall": 1.0,
      "fact_hits": [
        "ETCD",
        "TSPARMCD",
        "ARMCD",
        "20 characters"
      ],
      "fact_misses": [],
      "answer_preview": "Based on the SDTMIG v3.4 knowledge base, the key distinction between **ETCD**, **TSPARMCD**, and **ARMCD** versus **--TESTCD** lies in their character restrictions and maximum lengths:\n\n### 1. Character Restrictions\n\n- **--TESTCD**: Values are subject to strict character restrictions. They **cannot start with a number** and **cannot contain characters other than letters, numbers, or underscores**. This is to ensure compatibility with SAS v5 transport files, as --TESTCD may need to serve as a variable name. **[Source: chapters/ch04_general_assumptions.md §4.2.1]**\n\n- **ETCD, TSPARMCD, and ARMCD",
      "usage": {
        "prompt_tokens": 11366,
        "completion_tokens": 602,
        "total_tokens": 11968
      },
      "model": "deepseek/deepseek-chat",
      "elapsed_s": 6.15
    },
    {
      "id": "q89",
      "category": "concept",
      "question": "What are the timing variables grouped under Relative Timing in SDTM (such as --STRF, --ENRF, --STRTPT, --ENRTPT) and what kinds of values do they take?",
      "source_recall": 1.0,
      "source_hits": [
        "model/02_observation_classes.md",
        "chapters/ch04_general_assumptions.md"
      ],
      "source_misses": [],
      "top5_sources": [
        "chapters/ch04_general_assumptions.md",
        "model/02_observation_classes.md",
        "domains/SV/assumptions.md",
        "chapters/ch04_general_assumptions.md",
        "domains/SU/spec.md"
      ],
      "top5_similarities": [
        0.713,
        0.638,
        0.6002,
        0.6249,
        0.5948
      ],
      "fact_recall": 1.0,
      "fact_hits": [
        "STRF",
        "ENRF",
        "STRTPT",
        "BEFORE"
      ],
      "fact_misses": [],
      "answer_preview": "Based on the SDTMIG v3.4 knowledge base, the Relative Timing variables are a group of timing variables that describe the temporal relationship of an observation relative to a reference point or period. They are defined in the model's Timing Variables for All Classes and detailed in Section 4.4.7 of the implementation guide.\n\n### Variables and Their Values\n\nThe following variables are grouped under Relative Timing:\n\n| # | Variable | Label | Type | Allowable Values | Purpose |\n|---|----------|-------|------|------------------|---------|\n| 33 | **--STRF** | Start Relative to Reference Period | Ch",
      "usage": {
        "prompt_tokens": 13834,
        "completion_tokens": 1024,
        "total_tokens": 14858
      },
      "model": "deepseek/deepseek-chat",
      "elapsed_s": 8.43
    },
    {
      "id": "q90",
      "category": "mixed",
      "question": "In the EX (Exposure) domain, what is the EXROUTE variable and its controlled terminology codelist code, and list some parenteral route-of-administration values from that codelist (for example routes administered under the skin or into a muscle).",
      "source_recall": 1.0,
      "source_hits": [
        "domains/EX/spec.md",
        "terminology/core/interventions.md"
      ],
      "source_misses": [],
      "top5_sources": [
        "domains/EX/spec.md",
        "terminology/core/interventions.md",
        "domains/EX/examples.md",
        "domains/EX/assumptions.md",
        "domains/EX/spec.md"
      ],
      "top5_similarities": [
        0.6862,
        0.4971,
        0.5685,
        0.5878,
        0.631
      ],
      "fact_recall": 1.0,
      "fact_hits": [
        "EXROUTE",
        "C66729",
        "SUBCUTANEOUS",
        "INTRAMUSCULAR"
      ],
      "fact_misses": [],
      "answer_preview": "Based on the retrieved context, here is the definition of the EXROUTE variable and its associated controlled terminology.\n\n### EXROUTE Variable Definition\n\n- **Label:** Route of Administration\n- **Type:** Char\n- **Role:** Variable Qualifier\n- **Core:** Perm\n- **Controlled Terms:** C66729\n- **CDISC Notes:** Route of administration for the intervention. Examples: \"ORAL\", \"INTRAVENOUS\".\n\n**[Source: domains/EX/spec.md -- EXROUTE]**\n\n### Controlled Terminology (C66729)\n\nThe codelist code for EXROUTE is **C66729**, named \"Route of Administration Response\". This codelist is extensible.\n\n**[Source: te",
      "usage": {
        "prompt_tokens": 13903,
        "completion_tokens": 283,
        "total_tokens": 14186
      },
      "model": "deepseek/deepseek-chat",
      "elapsed_s": 3.42
    },
    {
      "id": "q91",
      "category": "mixed",
      "question": "In the DS (Disposition) domain, which codelist does DSDECOD use for disposition events, and what are some reason-for-non-completion values from that codelist (for example a subject-initiated withdrawal or a physician's decision)?",
      "source_recall": 1.0,
      "source_hits": [
        "domains/DS/spec.md",
        "terminology/core/disposition.md"
      ],
      "source_misses": [],
      "top5_sources": [
        "domains/DS/spec.md",
        "terminology/core/disposition.md",
        "domains/DS/assumptions.md",
        "domains/DS/assumptions.md",
        "domains/DS/spec.md"
      ],
      "top5_similarities": [
        0.7472,
        0.6083,
        0.7319,
        0.6143,
        0.6825
      ],
      "fact_recall": 1.0,
      "fact_hits": [
        "DSDECOD",
        "C66727",
        "WITHDRAWAL BY SUBJECT",
        "PHYSICIAN DECISION"
      ],
      "fact_misses": [],
      "answer_preview": "Based on the SDTMIG v3.4 knowledge base, for disposition events (where `DSCAT = \"DISPOSITION EVENT\"`), `DSDECOD` uses the **Completion/Reason for Non-Completion** codelist (C66727).\n\n## DSDECOD Codelist for Disposition Events\n\n| Property | Value |\n|----------|-------|\n| **Codelist Code** | C66727 |\n| **CDISC Submission Value** | Completion/Reason for Non-Completion |\n| **Extensible** | Yes |\n| **Used by** | DSDECOD when DSCAT = \"DISPOSITION EVENT\" |\n\n**[Source: domains/DS/spec.md]** — DSDECOD uses controlled terminology C66727 for disposition events.\n\n**[Source: domains/DS/assumptions.md, item",
      "usage": {
        "prompt_tokens": 14562,
        "completion_tokens": 819,
        "total_tokens": 15381
      },
      "model": "deepseek/deepseek-chat",
      "elapsed_s": 7.41
    },
    {
      "id": "q92",
      "category": "mixed",
      "question": "What is the ETHNIC variable in the DM domain, what controlled terminology codelist code does it use, and what are its permitted values?",
      "source_recall": 1.0,
      "source_hits": [
        "domains/DM/spec.md",
        "terminology/core/dm.md"
      ],
      "source_misses": [],
      "top5_sources": [
        "domains/DM/spec.md",
        "terminology/core/dm.md",
        "domains/DM/spec.md",
        "domains/DM/assumptions.md",
        "chapters/ch04_general_assumptions.md"
      ],
      "top5_similarities": [
        0.6371,
        0.522,
        0.5401,
        0.5725,
        0.5587
      ],
      "fact_recall": 1.0,
      "fact_hits": [
        "ETHNIC",
        "C66790",
        "HISPANIC OR LATINO"
      ],
      "fact_misses": [],
      "answer_preview": "## ETHNIC Variable in DM Domain\n\n### Variable Definition\n\n| Attribute | Value |\n|-----------|-------|\n| **Label** | Ethnicity |\n| **Type** | Char |\n| **Role** | Record Qualifier |\n| **Core** | Perm |\n| **Controlled Terms** | C66790 |\n\n**[Source: domains/DM/spec.md — ETHNIC]**\n\n### CDISC Notes\n\nThe ethnicity of the subject. Sponsors should refer to the FDA guidance regarding the collection of ethnicity.\n\n**[Source: domains/DM/spec.md — ETHNIC]**\n\n### Controlled Terminology (C66790 — Ethnic Group)\n\n**Extensible:** No\n\n| Code | CDISC Submission Value | CDISC Definition |\n|------|-----------------",
      "usage": {
        "prompt_tokens": 15580,
        "completion_tokens": 476,
        "total_tokens": 16056
      },
      "model": "deepseek/deepseek-chat",
      "elapsed_s": 4.72
    },
    {
      "id": "q93",
      "category": "mixed",
      "question": "In the EX domain, what is the EXDOSFRM (Dose Form) variable and its controlled terminology codelist code, and give some dose-form values from that codelist (for example a solid oral shell form or a sterile parenteral form)?",
      "source_recall": 1.0,
      "source_hits": [
        "domains/EX/spec.md",
        "terminology/core/interventions.md"
      ],
      "source_misses": [],
      "top5_sources": [
        "domains/EX/spec.md",
        "terminology/core/interventions.md",
        "domains/EC/spec.md",
        "domains/CM/spec.md",
        "domains/ML/spec.md"
      ],
      "top5_similarities": [
        0.7833,
        0.4203,
        0.7138,
        0.6844,
        0.6295
      ],
      "fact_recall": 0.75,
      "fact_hits": [
        "EXDOSFRM",
        "C66726",
        "CAPSULE"
      ],
      "fact_misses": [
        "INJECTION"
      ],
      "answer_preview": "Based on the retrieved context, here is the definition and controlled terminology for the EXDOSFRM variable in the EX domain:\n\n### EXDOSFRM Variable Definition\n\n- **Label:** Dose Form\n- **Type:** Char\n- **Role:** Variable Qualifier\n- **Core:** Expected (Exp)\n- **CDISC Notes:** Dose form for EXTRT. Examples: \"TABLET\", \"LOTION\".\n- **Controlled Terms Codelist Code:** C66726 (Pharmaceutical Dosage Form)\n\n**[Source: domains/EX/spec.md]**\n\n### Controlled Terminology Values (C66726)\n\nThe codelist C66726 is extensible and contains many values. Based on the retrieved terminology file, here are examples",
      "usage": {
        "prompt_tokens": 11334,
        "completion_tokens": 338,
        "total_tokens": 11672
      },
      "model": "deepseek/deepseek-chat",
      "elapsed_s": 3.81
    },
    {
      "id": "q94",
      "category": "mixed",
      "question": "How does the LB domain distinguish the original result LBORRES from the standardized result LBSTRESC, what codelist does LBSTRESC reference, and what are some of the standard result values in that codelist (for example for positive/negative findings)?",
      "source_recall": 1.0,
      "source_hits": [
        "domains/LB/spec.md",
        "terminology/core/lb_part4.md"
      ],
      "source_misses": [],
      "top5_sources": [
        "domains/LB/spec.md",
        "terminology/core/lb_part4.md",
        "domains/LB/examples.md",
        "domains/LB/spec.md",
        "domains/LB/examples.md"
      ],
      "top5_similarities": [
        0.7761,
        0.569,
        0.6411,
        0.6766,
        0.6406
      ],
      "fact_recall": 1.0,
      "fact_hits": [
        "LBORRES",
        "LBSTRESC",
        "C102580",
        "NEGATIVE",
        "POSITIVE"
      ],
      "fact_misses": [],
      "answer_preview": "## LBORRES vs LBSTRESC Distinction\n\nThe LB domain uses a **3-level result framework** to distinguish original from standardized results:\n\n### LBORRES (Original Result)\n- **Label:** Result or Finding in Original Units\n- **Type:** Char\n- **Role:** Result Qualifier\n- **Core:** Exp\n- **Controlled Terms:** None\n- **Definition:** Always contains the originally collected/reported value as it appears on the source document **[Source: domains/LB/spec.md — LBORRES]**\n\n### LBSTRESC (Standardized Result)\n- **Label:** Character Result/Finding in Std Format\n- **Type:** Char\n- **Role:** Result Qualifier\n- **",
      "usage": {
        "prompt_tokens": 14685,
        "completion_tokens": 936,
        "total_tokens": 15621
      },
      "model": "deepseek/deepseek-chat",
      "elapsed_s": 8.91
    },
    {
      "id": "q95",
      "category": "mixed",
      "question": "In the DD (Death Details) domain, what is the DDTEST variable and its controlled terminology codelist code, and what are some of the test names defined in that codelist (for example relating to cause of death or age at death)?",
      "source_recall": 1.0,
      "source_hits": [
        "domains/DD/spec.md",
        "terminology/core/other_part4.md"
      ],
      "source_misses": [],
      "top5_sources": [
        "domains/DD/spec.md",
        "terminology/core/other_part4.md",
        "domains/DD/spec.md",
        "terminology/core/other_part4.md",
        "VARIABLE_INDEX.md"
      ],
      "top5_similarities": [
        0.7643,
        0.6729,
        0.7509,
        0.6619,
        0.6722
      ],
      "fact_recall": 1.0,
      "fact_hits": [
        "DDTEST",
        "C116107",
        "Primary Cause of Death",
        "Age at Death"
      ],
      "fact_misses": [],
      "answer_preview": "Based on the SDTM knowledge base, here is the information for the DDTEST variable in the DD (Death Details) domain:\n\n## DDTEST Variable Definition\n\n- **Label:** Death Detail Assessment Name\n- **Type:** Char\n- **Role:** Synonym Qualifier\n- **Core:** Req (Required)\n- **Controlled Terms Codelist Code:** C116107\n- **CDISC Notes:** Long name for DDTESTCD. The value in DDTEST cannot be longer than 40 characters. Examples: \"Primary Cause of Death\", \"Secondary Cause of Death\".\n\n**[Source: domains/DD/spec.md]**\n\n## Controlled Terminology (C116107) — Selected Test Names\n\nThe codelist **SDTM Death Diagno",
      "usage": {
        "prompt_tokens": 11807,
        "completion_tokens": 618,
        "total_tokens": 12425
      },
      "model": "deepseek/deepseek-chat",
      "elapsed_s": 5.36
    },
    {
      "id": "q96",
      "category": "mixed",
      "question": "In the FA (Findings About) domain, what is the FATEST variable and its controlled terminology codelist code, and give some example test names from that codelist (such as Diameter or Cumulative Exposure)?",
      "source_recall": 1.0,
      "source_hits": [
        "domains/FA/spec.md",
        "terminology/core/findings_about.md"
      ],
      "source_misses": [],
      "top5_sources": [
        "domains/FA/spec.md",
        "terminology/core/findings_about.md",
        "domains/FA/assumptions.md",
        "model/02_observation_classes.md",
        "domains/FA/spec.md"
      ],
      "top5_similarities": [
        0.7232,
        0.487,
        0.7102,
        0.5997,
        0.6545
      ],
      "fact_recall": 1.0,
      "fact_hits": [
        "FATEST",
        "C101833",
        "Diameter",
        "Cumulative Exposure"
      ],
      "fact_misses": [],
      "answer_preview": "Based on the retrieved context, here is the definition of the **FATEST** variable in the FA domain, along with its controlled terminology and examples.\n\n### FATEST Variable Definition\n\n- **Label:** Findings About Test Name\n- **Type:** Char\n- **Role:** Synonym Qualifier\n- **Core:** Req\n- **Controlled Terms:** C101833\n- **CDISC Notes:** Verbatim name of the test or examination used to obtain the measurement or finding. The value in FATEST cannot be longer than 40 characters. Examples: \"Severity/Intensity\", \"Occurrence\". Note that controlled terminology is in a FATEST general codelist and in seve",
      "usage": {
        "prompt_tokens": 17521,
        "completion_tokens": 611,
        "total_tokens": 18132
      },
      "model": "deepseek/deepseek-chat",
      "elapsed_s": 5.82
    },
    {
      "id": "q97",
      "category": "mixed",
      "question": "In the SS (Subject Status) domain, what is the SSSTRESC variable, what controlled terminology codelist does it use, and what are the standard subject-status result values in that codelist (such as for a living versus deceased subject)?",
      "source_recall": 1.0,
      "source_hits": [
        "domains/SS/spec.md",
        "terminology/core/other_part5.md"
      ],
      "source_misses": [],
      "top5_sources": [
        "domains/SS/spec.md",
        "terminology/core/other_part5.md",
        "VARIABLE_INDEX.md",
        "terminology/core/other_part5.md",
        "domains/SS/assumptions.md"
      ],
      "top5_similarities": [
        0.7309,
        0.5847,
        0.6764,
        0.5747,
        0.5833
      ],
      "fact_recall": 1.0,
      "fact_hits": [
        "SSSTRESC",
        "C124304",
        "ALIVE",
        "DEAD"
      ],
      "fact_misses": [],
      "answer_preview": "Based on the retrieved context, here is the information for the SSSTRESC variable in the Subject Status (SS) domain:\n\n## SSSTRESC Variable Definition\n\n- **Label:** Character Result/Finding in Std Format\n- **Type:** Char\n- **Role:** Result Qualifier\n- **Core:** Exp (Expected)\n- **Controlled Terms:** C124304\n- **CDISC Notes:** Contains the result value for all findings copied or derived from SSORRES, in a standard format. **[Source: domains/SS/spec.md]**\n\n## Controlled Terminology Codelist (C124304)\n\nThe controlled terminology codelist for SSSTRESC is **Subject Status Response (C124304)**. **[So",
      "usage": {
        "prompt_tokens": 12350,
        "completion_tokens": 541,
        "total_tokens": 12891
      },
      "model": "deepseek/deepseek-chat",
      "elapsed_s": 5.67
    },
    {
      "id": "q98",
      "category": "mixed",
      "question": "In the CM (Concomitant Medications) domain, what is the CMDOSU (Dose Units) variable, what controlled terminology codelist does it use, and give some unit values from that codelist (for example an international unit or a milliequivalent)?",
      "source_recall": 1.0,
      "source_hits": [
        "domains/CM/spec.md",
        "terminology/core/general_part5.md"
      ],
      "source_misses": [],
      "top5_sources": [
        "domains/CM/spec.md",
        "terminology/core/general_part5.md",
        "domains/CM/assumptions.md",
        "VARIABLE_INDEX.md",
        "domains/LB/assumptions.md"
      ],
      "top5_similarities": [
        0.7977,
        0.5497,
        0.6795,
        0.6301,
        21.1024
      ],
      "fact_recall": 1.0,
      "fact_hits": [
        "CMDOSU",
        "C71620",
        "IU",
        "mEq"
      ],
      "fact_misses": [],
      "answer_preview": "Based on the retrieved context, here is the information for the CMDOSU variable in the CM domain:\n\n**CMDOSU (Dose Units)**\n- **Label:** Dose Units\n- **Type:** Char\n- **Role:** Variable Qualifier\n- **Core:** Perm (Permissible)\n- **CDISC Notes:** Units for CMDOSE, CMDOSTOT, or CMDOSTXT. Examples: \"ng\", \"mg\", \"mg/kg\". **[Source: domains/CM/spec.md -- CMDOSU]**\n\n**Controlled Terminology Codelist:**\nCMDOSU uses the **Unit (C71620)** codelist. **[Source: domains/CM/spec.md -- Controlled Terminology]**\n\n**Example Unit Values from the C71620 Codelist:**\nThe codelist contains a wide range of units. Exa",
      "usage": {
        "prompt_tokens": 13128,
        "completion_tokens": 286,
        "total_tokens": 13414
      },
      "model": "deepseek/deepseek-chat",
      "elapsed_s": 3.5
    },
    {
      "id": "q99",
      "category": "mixed",
      "question": "In the QS (Questionnaires) domain, what is the QSCAT variable used for, what controlled terminology codelist does it reference, and give some example questionnaire short names from that codelist.",
      "source_recall": 1.0,
      "source_hits": [
        "domains/QS/spec.md",
        "terminology/core/qs_part1.md"
      ],
      "source_misses": [],
      "top5_sources": [
        "domains/QS/spec.md",
        "terminology/core/qs_part1.md",
        "domains/SUPPQUAL/examples.md",
        "domains/FT/assumptions.md",
        "domains/QS/assumptions.md"
      ],
      "top5_similarities": [
        0.785,
        0.5381,
        0.6848,
        0.701,
        0.701
      ],
      "fact_recall": 0.5,
      "fact_hits": [
        "QSCAT",
        "C100129"
      ],
      "fact_misses": [
        "ACQ",
        "ACT"
      ],
      "answer_preview": "Based on the SDTMIG v3.4 knowledge base:\n\n## QSCAT Variable Definition\n\n**QSCAT** (Category of Question) is used to specify the questionnaire in which the question identified by QSTEST and QSTESTCD was included. **[Source: domains/QS/spec.md — QSCAT]**\n\n| Attribute | Value |\n|-----------|-------|\n| **Label** | Category of Question |\n| **Type** | Char |\n| **Role** | Grouping Qualifier |\n| **Core** | Req |\n| **Controlled Terms** | C100129 |\n\n## Controlled Terminology\n\nQSCAT references the **Category of Questionnaire** codelist (C100129). **[Source: domains/QS/spec.md — Controlled Terminology]**\n",
      "usage": {
        "prompt_tokens": 13827,
        "completion_tokens": 485,
        "total_tokens": 14312
      },
      "model": "deepseek/deepseek-chat",
      "elapsed_s": 4.82
    },
    {
      "id": "q100",
      "category": "single_domain",
      "question": "In the TA (Trial Arms) domain, what is the ARMCD variable's role and Core designation, and what is the ETCD variable used for?",
      "source_recall": 1.0,
      "source_hits": [
        "domains/TA/spec.md"
      ],
      "source_misses": [],
      "top5_sources": [
        "domains/TA/spec.md",
        "domains/TA/spec.md",
        "domains/TA/spec.md",
        "domains/TA/spec.md",
        "domains/DM/assumptions.md"
      ],
      "top5_similarities": [
        0.6516,
        0.5969,
        0.5805,
        0.575,
        0.6754
      ],
      "fact_recall": 0.75,
      "fact_hits": [
        "ARMCD",
        "Topic",
        "ETCD"
      ],
      "fact_misses": [
        "Element Code"
      ],
      "answer_preview": "Based on the provided context, here are the details for the ARMCD and ETCD variables in the TA domain:\n\n### ARMCD\n\n- **Role:** Topic\n- **Core:** Req (Required)\n- **Description:** The code for the planned arm. It is limited to 20 characters and does not have special character restrictions, which is longer than other \"short\" variables to accommodate values needed for crossover trials (e.g., using 2-character abbreviations for each treatment in a 7-period crossover). **[Source: domains/TA/spec.md -- ARMCD]**\n\n### ETCD\n\nThe provided context does not contain a specification for the ETCD variable wi",
      "usage": {
        "prompt_tokens": 14133,
        "completion_tokens": 374,
        "total_tokens": 14507
      },
      "model": "deepseek/deepseek-chat",
      "elapsed_s": 4.73
    },
    {
      "id": "q101",
      "category": "mixed",
      "question": "What is the TSPARM variable in the TS domain, what is its controlled terminology codelist code, and give some example trial summary parameter names defined in that codelist.",
      "source_recall": 1.0,
      "source_hits": [
        "domains/TS/spec.md",
        "terminology/core/trial_design.md"
      ],
      "source_misses": [],
      "top5_sources": [
        "domains/TS/spec.md",
        "terminology/core/trial_design.md",
        "domains/TS/assumptions.md",
        "VARIABLE_INDEX.md",
        "domains/TS/spec.md"
      ],
      "top5_similarities": [
        0.7454,
        0.464,
        0.6272,
        0.6342,
        0.6961
      ],
      "fact_recall": 0.5,
      "fact_hits": [
        "TSPARM",
        "C67152"
      ],
      "fact_misses": [
        "Actual Number of Subjects",
        "Clinical Study Sponsor"
      ],
      "answer_preview": "Based on the retrieved context, here is the definition of the **TSPARM** variable in the TS domain:\n\n**TSPARM (Trial Summary Parameter)**\n- **Label:** Trial Summary Parameter\n- **Type:** Char\n- **Controlled Terms:** C67152\n- **Role:** Synonym Qualifier\n- **Core:** Req\n- **CDISC Notes:** Term for the trial summary parameter. The value in TSPARM cannot be longer than 40 characters. Examples: \"Planned Minimum Age of Subjects\", \"Planned Maximum Age of Subjects\". **[Source: domains/TS/spec.md]**\n\nThe controlled terminology codelist code for TSPARM is **C67152**. **[Source: domains/TS/spec.md]**\n\nTh",
      "usage": {
        "prompt_tokens": 11137,
        "completion_tokens": 547,
        "total_tokens": 11684
      },
      "model": "deepseek/deepseek-chat",
      "elapsed_s": 4.91
    },
    {
      "id": "q102",
      "category": "mixed",
      "question": "In the VS (Vital Signs) domain, what is the VSPOS variable, what controlled terminology codelist does it use, and list some subject-position values from that codelist (for example a face-down position or a semi-sitting bed position)?",
      "source_recall": 1.0,
      "source_hits": [
        "domains/VS/spec.md",
        "terminology/core/interventions.md"
      ],
      "source_misses": [],
      "top5_sources": [
        "domains/VS/spec.md",
        "terminology/core/interventions.md",
        "domains/VS/spec.md",
        "VARIABLE_INDEX.md",
        "domains/CV/spec.md"
      ],
      "top5_similarities": [
        0.756,
        0.5398,
        0.6601,
        0.5644,
        0.6317
      ],
      "fact_recall": 1.0,
      "fact_hits": [
        "VSPOS",
        "C71148",
        "PRONE",
        "FOWLERS"
      ],
      "fact_misses": [],
      "answer_preview": "Based on the retrieved context, here is the detailed information about the VSPOS variable in the VS (Vital Signs) domain:\n\n## VSPOS Variable Definition\n\n- **Label:** Vital Signs Position of Subject\n- **Type:** Char\n- **Role:** Record Qualifier\n- **Core:** Perm (Permissible)\n- **CDISC Notes:** Position of the subject during a measurement or examination. Examples: \"SUPINE\", \"STANDING\", \"SITTING\".\n\n**[Source: domains/VS/spec.md]**\n\n## Controlled Terminology Codelist\n\nVSPOS uses the **Position (C71148)** codelist. This codelist is **Extensible** (Yes), meaning sponsors may add values not in the pu",
      "usage": {
        "prompt_tokens": 11003,
        "completion_tokens": 698,
        "total_tokens": 11701
      },
      "model": "deepseek/deepseek-chat",
      "elapsed_s": 5.96
    }
  ],
  "tag": "full_on_t0_fix"
}