{
  "summary": {
    "n_questions": 102,
    "model": "deepseek/deepseek-chat",
    "threshold": 0.85,
    "source_recall_avg": 0.8088,
    "source_recall_by_category": {
      "concept": 0.92,
      "cross_domain": 0.52,
      "mixed": 0.8,
      "single_domain": 0.9815
    },
    "fact_recall_avg": 0.9592,
    "fact_recall_by_category": {
      "concept": 0.9767,
      "cross_domain": 0.9667,
      "mixed": 0.94,
      "single_domain": 0.9537
    },
    "overall": 0.884,
    "total_tokens": 1265391,
    "verdict": "PASS",
    "top_k": 15
  },
  "results": [
    {
      "id": "q01",
      "category": "single_domain",
      "question": "What is AETERM and what are its variable attributes in the AE domain?",
      "source_recall": 1.0,
      "source_hits": [
        "domains/AE/spec.md"
      ],
      "source_misses": [],
      "top5_sources": [
        "domains/AE/assumptions.md",
        "domains/AE/assumptions.md",
        "domains/AE/spec.md",
        "domains/AE/assumptions.md",
        "domains/AE/spec.md"
      ],
      "top5_similarities": [
        0.6641,
        0.6105,
        0.5884,
        0.579,
        0.5778
      ],
      "fact_recall": 1.0,
      "fact_hits": [
        "Topic",
        "Char",
        "Req",
        "Verbatim"
      ],
      "fact_misses": [],
      "answer_preview": "Based on the SDTM knowledge base, AETERM is the **Reported Term for the Adverse Event**.\n\nHere are its complete variable attributes:\n\n- **Order:** 9\n- **Label:** Reported Term for the Adverse Event\n- **Type:** Char\n- **Controlled Terms:** (None)\n- **Role:** Topic\n- **Core:** Req\n- **CDISC Notes:** V",
      "usage": {
        "prompt_tokens": 10356,
        "completion_tokens": 215,
        "total_tokens": 10571
      },
      "model": "deepseek/deepseek-chat",
      "elapsed_s": 2.95
    },
    {
      "id": "q02",
      "category": "single_domain",
      "question": "What are the required (Core=Req) variables in the DM domain?",
      "source_recall": 1.0,
      "source_hits": [
        "domains/DM/spec.md"
      ],
      "source_misses": [],
      "top5_sources": [
        "domains/DM/assumptions.md",
        "chapters/ch04_general_assumptions.md",
        "chapters/ch04_general_assumptions.md",
        "model/01_concepts_and_terms.md",
        "domains/TM/spec.md"
      ],
      "top5_similarities": [
        0.6081,
        0.5671,
        0.5064,
        0.5049,
        0.4935
      ],
      "fact_recall": 0.5,
      "fact_hits": [
        "STUDYID",
        "USUBJID",
        "ARM"
      ],
      "fact_misses": [
        "RFSTDTC",
        "AGE",
        "SEX"
      ],
      "answer_preview": "Based on the DM domain specification, the required (Core=Req) variables in the DM domain are:\n\n| Variable | Order | Label | Type | Role | Core |\n|----------|-------|-------|------|------|------|\n| STUDYID | 1 | Study Identifier | Char | Identifier | Req |\n| DOMAIN | 2 | Domain Abbreviation | Char | ",
      "usage": {
        "prompt_tokens": 10815,
        "completion_tokens": 555,
        "total_tokens": 11370
      },
      "model": "deepseek/deepseek-chat",
      "elapsed_s": 5.77
    },
    {
      "id": "q03",
      "category": "single_domain",
      "question": "What are the key assumptions for adverse event data collection and coding?",
      "source_recall": 1.0,
      "source_hits": [
        "domains/AE/assumptions.md"
      ],
      "source_misses": [],
      "top5_sources": [
        "domains/AE/assumptions.md",
        "domains/AE/assumptions.md",
        "domains/AE/assumptions.md",
        "domains/AE/assumptions.md",
        "domains/CE/assumptions.md"
      ],
      "top5_similarities": [
        0.5919,
        0.5755,
        0.5716,
        0.5608,
        0.5364
      ],
      "fact_recall": 1.0,
      "fact_hits": [
        "AETERM",
        "MedDRA",
        "AEDECOD"
      ],
      "fact_misses": [],
      "answer_preview": "Based on the retrieved context, here are the key assumptions for adverse event data collection and coding in the AE domain per SDTMIG v3.4:\n\n## Adverse Event Definition and Scope\n\nAdverse events include \"any untoward medical occurrence in a patient or clinical investigation subject administered a ph",
      "usage": {
        "prompt_tokens": 16179,
        "completion_tokens": 1029,
        "total_tokens": 17208
      },
      "model": "deepseek/deepseek-chat",
      "elapsed_s": 8.14
    },
    {
      "id": "q04",
      "category": "single_domain",
      "question": "What is the purpose of the TV (Trial Visits) domain and what variables does it contain?",
      "source_recall": 1.0,
      "source_hits": [
        "domains/TV/spec.md"
      ],
      "source_misses": [],
      "top5_sources": [
        "domains/SV/assumptions.md",
        "VARIABLE_INDEX.md",
        "domains/TV/examples.md",
        "domains/TV/assumptions.md",
        "domains/TA/spec.md"
      ],
      "top5_similarities": [
        0.6873,
        0.6708,
        0.6648,
        0.6384,
        0.6357
      ],
      "fact_recall": 1.0,
      "fact_hits": [
        "VISITNUM",
        "VISIT"
      ],
      "fact_misses": [],
      "answer_preview": "Based on the retrieved context, the **TV (Trial Visits)** domain is used to define the **planned schedule of clinical encounters (visits)** as specified in the clinical trial protocol.\n\n## Purpose\n\nThe TV domain describes the protocol-defined planned timing of subject encounters at the healthcare fa",
      "usage": {
        "prompt_tokens": 11464,
        "completion_tokens": 582,
        "total_tokens": 12046
      },
      "model": "deepseek/deepseek-chat",
      "elapsed_s": 5.48
    },
    {
      "id": "q05",
      "category": "single_domain",
      "question": "In the PE (Physical Examination) domain, what is the structure of the dataset, what is the role of the PETESTCD variable, and what value should PETESTCD have when the results of the entire physical examination are represented in one record?",
      "source_recall": 1.0,
      "source_hits": [
        "domains/PE/spec.md"
      ],
      "source_misses": [],
      "top5_sources": [
        "domains/PE/spec.md",
        "domains/PE/spec.md",
        "VARIABLE_INDEX.md",
        "domains/PE/examples.md",
        "domains/PE/assumptions.md"
      ],
      "top5_similarities": [
        0.731,
        0.7026,
        0.6909,
        0.6542,
        0.6236
      ],
      "fact_recall": 1.0,
      "fact_hits": [
        "PETESTCD",
        "Topic",
        "PHYSEXAM"
      ],
      "fact_misses": [],
      "answer_preview": "Based on the knowledge base, the structure and variable definitions for the Physical Examination (PE) domain are as follows:\n\n### Dataset Structure\n\nThe PE domain is a **Findings** class domain representing the presence or absence of physical signs of disease or abnormality observed during a general",
      "usage": {
        "prompt_tokens": 15428,
        "completion_tokens": 489,
        "total_tokens": 15917
      },
      "model": "deepseek/deepseek-chat",
      "elapsed_s": 4.44
    },
    {
      "id": "q21",
      "category": "single_domain",
      "question": "What is the LBTESTCD variable in the LB (Laboratory Test Results) domain? Describe its role, controlled terminology codelist code, and naming constraints.",
      "source_recall": 1.0,
      "source_hits": [
        "domains/LB/spec.md"
      ],
      "source_misses": [],
      "top5_sources": [
        "domains/LB/spec.md",
        "domains/LB/spec.md",
        "domains/LB/assumptions.md",
        "domains/LB/spec.md",
        "domains/LB/spec.md"
      ],
      "top5_similarities": [
        0.7837,
        0.7576,
        0.7499,
        0.7118,
        0.7058
      ],
      "fact_recall": 1.0,
      "fact_hits": [
        "Topic",
        "C65047",
        "8 characters"
      ],
      "fact_misses": [],
      "answer_preview": "Based on the retrieved context, here is the detailed specification for the **LBTESTCD** variable in the LB (Laboratory Test Results) domain:\n\n- **Label:** Lab Test or Examination Short Name\n- **Type:** Char\n- **Role:** Topic\n- **Core:** Req\n- **Controlled Terms:** **C65047**\n- **CDISC Notes:** Short",
      "usage": {
        "prompt_tokens": 12125,
        "completion_tokens": 188,
        "total_tokens": 12313
      },
      "model": "deepseek/deepseek-chat",
      "elapsed_s": 2.4
    },
    {
      "id": "q22",
      "category": "single_domain",
      "question": "What is the VS (Vital Signs) domain and what are some examples of VSTESTCD values? Include the codelist code.",
      "source_recall": 1.0,
      "source_hits": [
        "domains/VS/spec.md"
      ],
      "source_misses": [],
      "top5_sources": [
        "domains/VS/spec.md",
        "domains/VS/assumptions.md",
        "domains/VS/spec.md",
        "domains/VS/spec.md",
        "VARIABLE_INDEX.md"
      ],
      "top5_similarities": [
        0.7384,
        0.6914,
        0.67,
        0.6467,
        0.6305
      ],
      "fact_recall": 1.0,
      "fact_hits": [
        "Findings",
        "VSTESTCD",
        "C66741"
      ],
      "fact_misses": [],
      "answer_preview": "## VS (Vital Signs) Domain Overview\n\nThe VS domain is a **Findings** class domain used to capture vital sign measurements. It contains variables for test identification, results, timing, and qualifiers.\n\n---\n\n## VSTESTCD — Vital Signs Test Short Name\n\n| Attribute | Value |\n|-----------|-------|\n| **",
      "usage": {
        "prompt_tokens": 11557,
        "completion_tokens": 582,
        "total_tokens": 12139
      },
      "model": "deepseek/deepseek-chat",
      "elapsed_s": 4.76
    },
    {
      "id": "q23",
      "category": "single_domain",
      "question": "In the CM (Concomitant Medications) domain, what is the CMTRT variable and what observation class does CM belong to?",
      "source_recall": 1.0,
      "source_hits": [
        "domains/CM/spec.md"
      ],
      "source_misses": [],
      "top5_sources": [
        "domains/CM/spec.md",
        "domains/CM/assumptions.md",
        "domains/CM/assumptions.md",
        "domains/CM/spec.md",
        "VARIABLE_INDEX.md"
      ],
      "top5_similarities": [
        0.6736,
        0.6595,
        0.6281,
        0.6034,
        0.5988
      ],
      "fact_recall": 1.0,
      "fact_hits": [
        "CMTRT",
        "Interventions",
        "Topic",
        "Req"
      ],
      "fact_misses": [],
      "answer_preview": "Based on the SDTMIG v3.4 knowledge base:\n\n## CMTRT Variable Definition\n\n**CMTRT** (Reported Name of Drug, Med, or Therapy) is the Topic variable in the CM domain.\n\n| Attribute | Value |\n|-----------|-------|\n| **Label** | Reported Name of Drug, Med, or Therapy |\n| **Type** | Char |\n| **Role** | Topi",
      "usage": {
        "prompt_tokens": 10746,
        "completion_tokens": 470,
        "total_tokens": 11216
      },
      "model": "deepseek/deepseek-chat",
      "elapsed_s": 3.68
    },
    {
      "id": "q24",
      "category": "single_domain",
      "question": "What is the EX (Exposure) domain used for and what is the Topic variable EXTRT?",
      "source_recall": 1.0,
      "source_hits": [
        "domains/EX/spec.md"
      ],
      "source_misses": [],
      "top5_sources": [
        "domains/EX/assumptions.md",
        "domains/EX/assumptions.md",
        "domains/EX/assumptions.md",
        "domains/EC/spec.md",
        "domains/EX/assumptions.md"
      ],
      "top5_similarities": [
        0.6559,
        0.6203,
        0.6116,
        0.5973,
        0.5774
      ],
      "fact_recall": 1.0,
      "fact_hits": [
        "EXTRT",
        "Interventions",
        "protocol-specified"
      ],
      "fact_misses": [],
      "answer_preview": "Based on the retrieved context, here is the answer:\n\n**The EX (Exposure) domain** is used to represent protocol-specified study treatments administered to a subject, typically as a derived dataset. It includes treatments such as placebo, active comparators, and investigational products. Non-protocol",
      "usage": {
        "prompt_tokens": 11890,
        "completion_tokens": 371,
        "total_tokens": 12261
      },
      "model": "deepseek/deepseek-chat",
      "elapsed_s": 3.46
    },
    {
      "id": "q25",
      "category": "single_domain",
      "question": "In the MH (Medical History) domain, what is the role of MHTERM and what assumptions guide medical history data collection?",
      "source_recall": 1.0,
      "source_hits": [
        "domains/MH/assumptions.md"
      ],
      "source_misses": [],
      "top5_sources": [
        "domains/MH/assumptions.md",
        "VARIABLE_INDEX.md",
        "domains/MH/assumptions.md",
        "domains/MH/spec.md",
        "domains/MH/assumptions.md"
      ],
      "top5_similarities": [
        0.7369,
        0.6858,
        0.6768,
        0.6764,
        0.6713
      ],
      "fact_recall": 1.0,
      "fact_hits": [
        "MHTERM",
        "Topic",
        "Verbatim"
      ],
      "fact_misses": [],
      "answer_preview": "Based on the provided context, here is the role of MHTERM and the key assumptions guiding medical history data collection in the MH domain.\n\n### Role of MHTERM\n\nMHTERM (Reported Term for the Medical History) is a Char variable with the Role of **Topic** and a Core of **Required**. It captures the ve",
      "usage": {
        "prompt_tokens": 13648,
        "completion_tokens": 772,
        "total_tokens": 14420
      },
      "model": "deepseek/deepseek-chat",
      "elapsed_s": 5.93
    },
    {
      "id": "q26",
      "category": "single_domain",
      "question": "Describe the EG (ECG Test Results) domain structure and the EGTESTCD variable, including its controlled terminology codelist codes.",
      "source_recall": 1.0,
      "source_hits": [
        "domains/EG/spec.md"
      ],
      "source_misses": [],
      "top5_sources": [
        "domains/EG/spec.md",
        "domains/EG/spec.md",
        "domains/EG/spec.md",
        "VARIABLE_INDEX.md",
        "domains/EG/spec.md"
      ],
      "top5_similarities": [
        0.7263,
        0.7253,
        0.7229,
        0.6737,
        0.6583
      ],
      "fact_recall": 1.0,
      "fact_hits": [
        "EGTESTCD",
        "Findings",
        "C71153"
      ],
      "fact_misses": [],
      "answer_preview": "## EG (ECG Test Results) Domain Structure and EGTESTCD Variable\n\n### EG Domain Overview\n\nThe EG domain captures ECG test results and findings, classified as a **Findings** observation class. Key structural characteristics include:\n\n**Domain Composition:**\n- **Findings pattern**: EG uses the standard",
      "usage": {
        "prompt_tokens": 12340,
        "completion_tokens": 929,
        "total_tokens": 13269
      },
      "model": "deepseek/deepseek-chat",
      "elapsed_s": 8.0
    },
    {
      "id": "q27",
      "category": "single_domain",
      "question": "What is the IE (Inclusion/Exclusion) domain and what is the role and maximum length of the IETEST variable?",
      "source_recall": 1.0,
      "source_hits": [
        "domains/IE/spec.md"
      ],
      "source_misses": [],
      "top5_sources": [
        "domains/TI/spec.md",
        "domains/IE/spec.md",
        "domains/TI/assumptions.md",
        "domains/IE/assumptions.md",
        "domains/IE/assumptions.md"
      ],
      "top5_similarities": [
        0.7161,
        0.6769,
        0.6678,
        0.6552,
        0.6364
      ],
      "fact_recall": 1.0,
      "fact_hits": [
        "IETEST",
        "200",
        "Synonym Qualifier"
      ],
      "fact_misses": [],
      "answer_preview": "Based on the context provided, I can answer your question about the IE domain and the IETEST variable.\n\n### IE (Inclusion/Exclusion Criteria Not Met) Domain\n\nThe IE domain is a **Findings** class domain used to capture information about inclusion/exclusion criteria that a subject did **not** meet. I",
      "usage": {
        "prompt_tokens": 9431,
        "completion_tokens": 238,
        "total_tokens": 9669
      },
      "model": "deepseek/deepseek-chat",
      "elapsed_s": 2.45
    },
    {
      "id": "q06",
      "category": "cross_domain",
      "question": "What is SUPPQUAL and when should supplemental qualifiers be used instead of adding variables to a domain?",
      "source_recall": 1.0,
      "source_hits": [
        "domains/SUPPQUAL/spec.md"
      ],
      "source_misses": [],
      "top5_sources": [
        "chapters/ch08_relationships.md",
        "domains/SUPPQUAL/assumptions.md",
        "chapters/ch08_relationships.md",
        "model/06_relationship_datasets.md",
        "chapters/ch08_relationships.md"
      ],
      "top5_similarities": [
        0.7411,
        0.7409,
        0.7302,
        0.7295,
        0.6782
      ],
      "fact_recall": 1.0,
      "fact_hits": [
        "QNAM",
        "QVAL",
        "non-standard"
      ],
      "fact_misses": [],
      "answer_preview": "## SUPPQUAL — Supplemental Qualifiers\n\n**SUPPQUAL** (Supplemental Qualifiers for a domain) is a special-purpose relationship dataset model used to capture **non-standard variables (NSVs)** that cannot be accommodated in the standard domain datasets. The SDTMIG does not allow the addition of new vari",
      "usage": {
        "prompt_tokens": 15465,
        "completion_tokens": 1281,
        "total_tokens": 16746
      },
      "model": "deepseek/deepseek-chat",
      "elapsed_s": 9.57
    },
    {
      "id": "q07",
      "category": "cross_domain",
      "question": "Which SDTM domains use the EPOCH variable and what is its purpose?",
      "source_recall": 0.0,
      "source_hits": [],
      "source_misses": [
        "VARIABLE_INDEX.md"
      ],
      "top5_sources": [
        "chapters/ch04_general_assumptions.md",
        "domains/SR/spec.md",
        "domains/TA/assumptions.md",
        "domains/CP/spec.md",
        "domains/FA/spec.md"
      ],
      "top5_similarities": [
        0.7004,
        0.6837,
        0.6827,
        0.6778,
        0.6772
      ],
      "fact_recall": 1.0,
      "fact_hits": [
        "EPOCH",
        "Timing"
      ],
      "fact_misses": [],
      "answer_preview": "Based on the SDTMIG v3.4 knowledge base, the **EPOCH** variable is a Timing role variable used across all three general observation classes (Interventions, Events, and Findings) as well as in special-purpose domains.\n\n### Domains Using EPOCH\n\nThe EPOCH variable (Controlled Terms: C99079, Type: Char,",
      "usage": {
        "prompt_tokens": 9518,
        "completion_tokens": 1091,
        "total_tokens": 10609
      },
      "model": "deepseek/deepseek-chat",
      "elapsed_s": 7.51
    },
    {
      "id": "q08",
      "category": "cross_domain",
      "question": "How does USUBJID serve as a linking key across SDTM domains?",
      "source_recall": 1.0,
      "source_hits": [
        "domains/DM/spec.md"
      ],
      "source_misses": [],
      "top5_sources": [
        "domains/SUPPQUAL/spec.md",
        "domains/DM/spec.md",
        "domains/PP/spec.md",
        "domains/RELSPEC/spec.md",
        "domains/RELSUB/spec.md"
      ],
      "top5_similarities": [
        0.7075,
        0.6923,
        0.6855,
        0.6845,
        0.6825
      ],
      "fact_recall": 1.0,
      "fact_hits": [
        "USUBJID",
        "Identifier",
        "unique"
      ],
      "fact_misses": [],
      "answer_preview": "Based on the retrieved context, USUBJID serves as the **universal linking key** across SDTM domains by being a required identifier that establishes subject identity between datasets.\n\n**Key characteristics:**\n\n* **Label:** Unique Subject Identifier **[Source: all retrieved contexts]**\n* **Type:** Ch",
      "usage": {
        "prompt_tokens": 9182,
        "completion_tokens": 508,
        "total_tokens": 9690
      },
      "model": "deepseek/deepseek-chat",
      "elapsed_s": 5.2
    },
    {
      "id": "q09",
      "category": "cross_domain",
      "question": "How are adverse events linked to concomitant medications using RELREC?",
      "source_recall": 0.0,
      "source_hits": [],
      "source_misses": [
        "domains/RELREC/spec.md"
      ],
      "top5_sources": [
        "chapters/ch08_relationships.md",
        "domains/RELREC/examples.md",
        "chapters/ch08_relationships.md",
        "domains/RELREC/assumptions.md",
        "domains/CM/assumptions.md"
      ],
      "top5_similarities": [
        0.6173,
        0.583,
        0.5828,
        0.5376,
        0.537
      ],
      "fact_recall": 1.0,
      "fact_hits": [
        "RELREC",
        "IDVAR",
        "IDVARVAL"
      ],
      "fact_misses": [],
      "answer_preview": "Based on the knowledge base, adverse events are linked to concomitant medications using the **Related Records (RELREC)** special-purpose dataset. This relationship is established by adding records to RELREC that specify the domain, record identifiers, and a common relationship identifier (RELID).\n\n#",
      "usage": {
        "prompt_tokens": 16198,
        "completion_tokens": 926,
        "total_tokens": 17124
      },
      "model": "deepseek/deepseek-chat",
      "elapsed_s": 7.95
    },
    {
      "id": "q10",
      "category": "cross_domain",
      "question": "In oncology studies, how are the TR (Tumor/Lesion Results) domain and RS (Disease Response) domain linked together, and which specific identifier variables are used for each linkage direction?",
      "source_recall": 0.5,
      "source_hits": [
        "domains/TR/assumptions.md"
      ],
      "source_misses": [
        "domains/TR/spec.md"
      ],
      "top5_sources": [
        "domains/RS/assumptions.md",
        "domains/TR/assumptions.md",
        "domains/RS/assumptions.md",
        "domains/TR/assumptions.md",
        "domains/RS/assumptions.md"
      ],
      "top5_similarities": [
        0.713,
        0.7055,
        0.7032,
        0.6926,
        0.67
      ],
      "fact_recall": 1.0,
      "fact_hits": [
        "TRLNKID",
        "TRLNKGRP"
      ],
      "fact_misses": [],
      "answer_preview": "Based on the provided knowledge base, the TR (Tumor/Lesion Results) and RS (Disease Response) domains are linked using the **RELREC** relationship dataset. The specific identifier variables used depend on the linkage direction, with separate variables for each domain.\n\n### 1. Link between TR and its",
      "usage": {
        "prompt_tokens": 15743,
        "completion_tokens": 754,
        "total_tokens": 16497
      },
      "model": "deepseek/deepseek-chat",
      "elapsed_s": 6.38
    },
    {
      "id": "q28",
      "category": "cross_domain",
      "question": "What is the FA (Findings About Events or Interventions) domain and how does it link to parent domains like AE or CM using FAOBJ?",
      "source_recall": 1.0,
      "source_hits": [
        "domains/FA/spec.md"
      ],
      "source_misses": [],
      "top5_sources": [
        "domains/FA/assumptions.md",
        "domains/FA/assumptions.md",
        "model/02_observation_classes.md",
        "domains/FA/assumptions.md",
        "domains/FA/assumptions.md"
      ],
      "top5_similarities": [
        0.6937,
        0.6555,
        0.6529,
        0.646,
        0.6434
      ],
      "fact_recall": 1.0,
      "fact_hits": [
        "Findings About",
        "FAOBJ",
        "FATESTCD"
      ],
      "fact_misses": [],
      "answer_preview": "## FA (Findings About Events or Interventions) Domain\n\nThe FA domain is a **Findings About** subtype of the Findings Observation Class used to record observations, measurements, or assessments about events or interventions rather than about the subject directly. It captures data that represent \"snap",
      "usage": {
        "prompt_tokens": 14986,
        "completion_tokens": 1420,
        "total_tokens": 16406
      },
      "model": "deepseek/deepseek-chat",
      "elapsed_s": 11.69
    },
    {
      "id": "q29",
      "category": "cross_domain",
      "question": "How do the four Trial Design domains TA (Trial Arms), TE (Trial Elements), TV (Trial Visits), and TI (Trial Inclusion/Exclusion) work together to define a study design?",
      "source_recall": 1.0,
      "source_hits": [
        "domains/TA/assumptions.md",
        "domains/TE/assumptions.md"
      ],
      "source_misses": [],
      "top5_sources": [
        "domains/TA/spec.md",
        "domains/TV/spec.md",
        "domains/TE/assumptions.md",
        "domains/TE/spec.md",
        "domains/TA/assumptions.md"
      ],
      "top5_similarities": [
        0.7568,
        0.7534,
        0.7359,
        0.7352,
        0.7245
      ],
      "fact_recall": 1.0,
      "fact_hits": [
        "TA",
        "TE",
        "TV",
        "TI"
      ],
      "fact_misses": [],
      "answer_preview": "# How TA, TE, TV, and TI Work Together to Define a Study Design\n\nThese four Trial Design domains form a connected framework that describes the planned conduct of a clinical trial from different perspectives. They work together as follows:\n\n## Overview of Each Domain's Role\n\n| Domain | Purpose | Key ",
      "usage": {
        "prompt_tokens": 14040,
        "completion_tokens": 1012,
        "total_tokens": 15052
      },
      "model": "deepseek/deepseek-chat",
      "elapsed_s": 9.81
    },
    {
      "id": "q30",
      "category": "cross_domain",
      "question": "What is the CO (Comments) domain and how does it reference records in other SDTM domains? Describe the RDOMAIN and IDVAR mechanism.",
      "source_recall": 1.0,
      "source_hits": [
        "domains/CO/spec.md",
        "domains/CO/assumptions.md"
      ],
      "source_misses": [],
      "top5_sources": [
        "domains/CO/assumptions.md",
        "domains/CO/assumptions.md",
        "model/03_special_purpose_domains.md",
        "chapters/ch08_relationships.md",
        "domains/CO/assumptions.md"
      ],
      "top5_similarities": [
        0.7154,
        0.6876,
        0.6819,
        0.6728,
        0.6547
      ],
      "fact_recall": 1.0,
      "fact_hits": [
        "COVAL",
        "RDOMAIN",
        "IDVAR"
      ],
      "fact_misses": [],
      "answer_preview": "## CO (Comments) Domain Overview\n\nThe **Comments (CO)** domain is a **Special-purpose** domain, defined with the structure: **\"One record per comment per subject\"** for human clinical trials. It captures free-text comments that are not part of normal domain data, typically provided by a principal in",
      "usage": {
        "prompt_tokens": 11244,
        "completion_tokens": 1161,
        "total_tokens": 12405
      },
      "model": "deepseek/deepseek-chat",
      "elapsed_s": 8.93
    },
    {
      "id": "q31",
      "category": "cross_domain",
      "question": "How are the EC (Exposure as Collected) and EX (Exposure) domains different in purpose, and when should each be used?",
      "source_recall": 1.0,
      "source_hits": [
        "domains/EC/assumptions.md"
      ],
      "source_misses": [],
      "top5_sources": [
        "domains/EX/assumptions.md",
        "domains/EC/assumptions.md",
        "domains/EX/spec.md",
        "domains/EX/assumptions.md",
        "domains/EX/assumptions.md"
      ],
      "top5_similarities": [
        0.7328,
        0.7317,
        0.5962,
        0.5907,
        0.5869
      ],
      "fact_recall": 1.0,
      "fact_hits": [
        "collected",
        "EX",
        "EC"
      ],
      "fact_misses": [],
      "answer_preview": "# EC vs EX Domain: Purpose and Usage\n\n## Domain Purposes\n\n### EC (Exposure as Collected)\n- **Purpose**: Represents protocol-specified study treatment administrations **as collected** from the source (e.g., CRF) **[Source: domains/EC/assumptions.md -- item_1]**\n- **Nature**: Captures the raw, unmodif",
      "usage": {
        "prompt_tokens": 14894,
        "completion_tokens": 993,
        "total_tokens": 15887
      },
      "model": "deepseek/deepseek-chat",
      "elapsed_s": 8.8
    },
    {
      "id": "q32",
      "category": "cross_domain",
      "question": "How is VISIT and VISITNUM used consistently across observation-class domains, and what role does the SV (Subject Visits) domain play in tracking actual visit dates?",
      "source_recall": 0.5,
      "source_hits": [
        "domains/SV/assumptions.md"
      ],
      "source_misses": [
        "domains/SV/spec.md"
      ],
      "top5_sources": [
        "model/03_special_purpose_domains.md",
        "domains/TV/assumptions.md",
        "domains/FA/spec.md",
        "domains/AG/spec.md",
        "chapters/ch04_general_assumptions.md"
      ],
      "top5_similarities": [
        0.7044,
        0.6997,
        0.6681,
        0.6666,
        0.6665
      ],
      "fact_recall": 1.0,
      "fact_hits": [
        "VISIT",
        "VISITNUM",
        "SV"
      ],
      "fact_misses": [],
      "answer_preview": "## VISIT and VISITNUM Usage Across Observation-Class Domains\n\nVISITNUM and VISIT are **Timing Role variables** (Core: Expected and Permissible, respectively) used consistently across all three observation classes (Interventions, Events, Findings) to reference clinical encounters.\n\n### Variable Defin",
      "usage": {
        "prompt_tokens": 10188,
        "completion_tokens": 1414,
        "total_tokens": 11602
      },
      "model": "deepseek/deepseek-chat",
      "elapsed_s": 11.69
    },
    {
      "id": "q33",
      "category": "cross_domain",
      "question": "What is the RELSPEC domain and how does it define relationships between datasets at the study level, as opposed to RELREC which links individual records?",
      "source_recall": 0.0,
      "source_hits": [],
      "source_misses": [
        "domains/RELSPEC/spec.md"
      ],
      "top5_sources": [
        "chapters/ch08_relationships.md",
        "domains/RELSPEC/assumptions.md",
        "domains/RELSPEC/assumptions.md",
        "domains/RELREC/assumptions.md",
        "chapters/ch08_relationships.md"
      ],
      "top5_similarities": [
        0.7982,
        0.7933,
        0.7814,
        0.7707,
        0.7621
      ],
      "fact_recall": 1.0,
      "fact_hits": [
        "RELSPEC",
        "RELREC"
      ],
      "fact_misses": [],
      "answer_preview": "## RELSPEC Domain Overview\n\nThe RELSPEC (Related Specimens) domain is a special-purpose relationship dataset used to **represent relationships between specimens**, specifically for tracking specimen lineage and genealogy (e.g., parent specimen to derived aliquots or processed specimens). **[Source: ",
      "usage": {
        "prompt_tokens": 13413,
        "completion_tokens": 903,
        "total_tokens": 14316
      },
      "model": "deepseek/deepseek-chat",
      "elapsed_s": 7.49
    },
    {
      "id": "q34",
      "category": "cross_domain",
      "question": "Which SDTM domains share the controlled terminology codelist for NY (No Yes Response, C66742), and what variable typically uses this codelist in those domains?",
      "source_recall": 0.0,
      "source_hits": [],
      "source_misses": [
        "VARIABLE_INDEX.md"
      ],
      "top5_sources": [
        "chapters/ch04_general_assumptions.md",
        "chapters/ch04_general_assumptions.md",
        "domains/RELREC/spec.md",
        "domains/SV/spec.md",
        "domains/TM/spec.md"
      ],
      "top5_similarities": [
        0.6351,
        0.6157,
        0.6055,
        0.6017,
        0.593
      ],
      "fact_recall": 1.0,
      "fact_hits": [
        "C66742",
        "NY"
      ],
      "fact_misses": [],
      "answer_preview": "Based on the knowledge base, the **No Yes Response (C66742)** codelist is used in the following SDTM domains and variables:\n\n| Domain | Variable(s) Using C66742 |\n|--------|------------------------|\n| **DM** (Demographics) | `DTHFL` — Death Flag |\n| **IE** (Inclusion/Exclusion Criteria Not Met) | `I",
      "usage": {
        "prompt_tokens": 10619,
        "completion_tokens": 386,
        "total_tokens": 11005
      },
      "model": "deepseek/deepseek-chat",
      "elapsed_s": 4.12
    },
    {
      "id": "q11",
      "category": "concept",
      "question": "What are the three observation classes in the SDTM model?",
      "source_recall": 1.0,
      "source_hits": [
        "model/02_observation_classes.md"
      ],
      "source_misses": [],
      "top5_sources": [
        "model/02_observation_classes.md",
        "model/01_concepts_and_terms.md",
        "terminology/supplementary/supplementary_part5.md",
        "chapters/ch04_general_assumptions.md",
        "model/05_study_level_data.md"
      ],
      "top5_similarities": [
        0.7205,
        0.5632,
        0.5473,
        0.5452,
        0.5433
      ],
      "fact_recall": 1.0,
      "fact_hits": [
        "Interventions",
        "Events",
        "Findings"
      ],
      "fact_misses": [],
      "answer_preview": "Based on the SDTM v2.0 conceptual model, the three general observation classes are:\n\n1. **Interventions** — represents investigational, therapeutic, and other treatments administered to or used by a subject (e.g., medications, procedures, exposure). **[Source: model/01_concepts_and_terms.md]**\n\n2. *",
      "usage": {
        "prompt_tokens": 11900,
        "completion_tokens": 213,
        "total_tokens": 12113
      },
      "model": "deepseek/deepseek-chat",
      "elapsed_s": 2.36
    },
    {
      "id": "q12",
      "category": "concept",
      "question": "What do the Core designations Req, Exp, and Perm mean in SDTM?",
      "source_recall": 1.0,
      "source_hits": [
        "chapters/ch04"
      ],
      "source_misses": [],
      "top5_sources": [
        "chapters/ch04_general_assumptions.md",
        "domains/SUPPQUAL/spec.md",
        "domains/CO/spec.md",
        "terminology/supplementary/supplementary_part5.md",
        "domains/RELSPEC/assumptions.md"
      ],
      "top5_similarities": [
        0.6571,
        0.6055,
        0.5926,
        0.5856,
        0.5605
      ],
      "fact_recall": 1.0,
      "fact_hits": [
        "Required",
        "Expected",
        "Permissible"
      ],
      "fact_misses": [],
      "answer_preview": "Based on the SDTMIG v3.4, the three Core designations (Req, Exp, Perm) define the rules for including and populating variables in SDTM datasets:\n\n| Core Value | Label | Meaning & Rule |\n|------------|-------|----------------|\n| **Req** (Required) | Required | A variable basic to identifying a data r",
      "usage": {
        "prompt_tokens": 12272,
        "completion_tokens": 349,
        "total_tokens": 12621
      },
      "model": "deepseek/deepseek-chat",
      "elapsed_s": 3.41
    },
    {
      "id": "q13",
      "category": "concept",
      "question": "What is the difference between Topic, Qualifier, and Identifier variable roles?",
      "source_recall": 1.0,
      "source_hits": [
        "model/01_concepts_and_terms.md"
      ],
      "source_misses": [],
      "top5_sources": [
        "chapters/ch04_general_assumptions.md",
        "domains/ML/assumptions.md",
        "VARIABLE_INDEX.md",
        "domains/RELREC/spec.md",
        "domains/DS/assumptions.md"
      ],
      "top5_similarities": [
        0.526,
        0.5227,
        0.5211,
        0.5129,
        0.5124
      ],
      "fact_recall": 1.0,
      "fact_hits": [
        "Topic",
        "Qualifier",
        "Identifier"
      ],
      "fact_misses": [],
      "answer_preview": "## Difference Between Topic, Qualifier, and Identifier Variable Roles\n\nThe SDTM defines 5 major variable roles, with **Identifier**, **Topic**, and **Qualifier** being three of them (alongside Timing and Rule). Here is a precise breakdown of each:\n\n### 1. Identifier Variables\n- **Purpose**: Identify",
      "usage": {
        "prompt_tokens": 10609,
        "completion_tokens": 988,
        "total_tokens": 11597
      },
      "model": "deepseek/deepseek-chat",
      "elapsed_s": 8.58
    },
    {
      "id": "q14",
      "category": "concept",
      "question": "How should a sponsor create a new custom domain in SDTM?",
      "source_recall": 1.0,
      "source_hits": [
        "chapters/ch02"
      ],
      "source_misses": [],
      "top5_sources": [
        "chapters/ch04_general_assumptions.md",
        "model/01_concepts_and_terms.md",
        "domains/CO/assumptions.md",
        "chapters/ch04_general_assumptions.md",
        "chapters/ch03_submitting_data.md"
      ],
      "top5_similarities": [
        0.6011,
        0.5033,
        0.5002,
        0.4946,
        0.4894
      ],
      "fact_recall": 1.0,
      "fact_hits": [
        "observation class"
      ],
      "fact_misses": [],
      "answer_preview": "Based on the provided context, here is how a sponsor should create a new custom domain in SDTM:\n\n## Naming Convention\n\nTo avoid conflicts with future CDISC-defined domain codes, sponsors should use domain codes beginning with the letters **X, Y, or Z** for custom domains. Any letter or number may be",
      "usage": {
        "prompt_tokens": 13588,
        "completion_tokens": 482,
        "total_tokens": 14070
      },
      "model": "deepseek/deepseek-chat",
      "elapsed_s": 4.66
    },
    {
      "id": "q15",
      "category": "concept",
      "question": "What are the three SDTM Core designation categories for variables, and what are the rules for handling a Permissible variable when a study did not collect the corresponding data item?",
      "source_recall": 1.0,
      "source_hits": [
        "chapters/ch04_general_assumptions.md"
      ],
      "source_misses": [],
      "top5_sources": [
        "chapters/ch04_general_assumptions.md",
        "model/01_concepts_and_terms.md",
        "model/01_concepts_and_terms.md",
        "chapters/ch04_general_assumptions.md",
        "chapters/ch01_introduction.md"
      ],
      "top5_similarities": [
        0.7806,
        0.6896,
        0.6426,
        0.6274,
        0.6228
      ],
      "fact_recall": 1.0,
      "fact_hits": [
        "Req",
        "Exp",
        "Perm"
      ],
      "fact_misses": [],
      "answer_preview": "## SDTM Core Designation Categories\n\nThe three SDTM Core designation categories for variables are:\n\n1. **Required (Req)** — A variable that is basic to identification of a data record or necessary to make the record meaningful. Must always be included in the dataset and **cannot be null for any reco",
      "usage": {
        "prompt_tokens": 14820,
        "completion_tokens": 390,
        "total_tokens": 15210
      },
      "model": "deepseek/deepseek-chat",
      "elapsed_s": 3.74
    },
    {
      "id": "q35",
      "category": "concept",
      "question": "What is Controlled Terminology (CT) in SDTM and how does it constrain the values that variables can contain?",
      "source_recall": 1.0,
      "source_hits": [
        "chapters/ch04"
      ],
      "source_misses": [],
      "top5_sources": [
        "chapters/ch04_general_assumptions.md",
        "chapters/ch04_general_assumptions.md",
        "chapters/ch04_general_assumptions.md",
        "domains/TS/assumptions.md",
        "model/01_concepts_and_terms.md"
      ],
      "top5_similarities": [
        0.6884,
        0.6771,
        0.6657,
        0.6237,
        0.6231
      ],
      "fact_recall": 1.0,
      "fact_hits": [
        "codelist",
        "Controlled Terms"
      ],
      "fact_misses": [],
      "answer_preview": "# Controlled Terminology (CT) in SDTM\n\n## Definition\n\n**Controlled Terminology (CT)** in SDTM is a standardized set of permissible values (codelists) that constrain what values certain variables can contain. It is centrally managed by the CDISC Controlled Terminology Team, supporting terminology nee",
      "usage": {
        "prompt_tokens": 11607,
        "completion_tokens": 922,
        "total_tokens": 12529
      },
      "model": "deepseek/deepseek-chat",
      "elapsed_s": 7.73
    },
    {
      "id": "q36",
      "category": "concept",
      "question": "What are the timing variables in SDTM (such as --DTC, --STDTC, --ENDTC) and how are they structured across domains?",
      "source_recall": 1.0,
      "source_hits": [
        "chapters/ch04"
      ],
      "source_misses": [],
      "top5_sources": [
        "domains/DS/assumptions.md",
        "model/01_concepts_and_terms.md",
        "chapters/ch04_general_assumptions.md",
        "domains/BE/assumptions.md",
        "domains/DM/assumptions.md"
      ],
      "top5_similarities": [
        0.7121,
        0.7001,
        0.6668,
        0.6647,
        0.6601
      ],
      "fact_recall": 1.0,
      "fact_hits": [
        "DTC",
        "STDTC",
        "ENDTC",
        "Timing"
      ],
      "fact_misses": [],
      "answer_preview": "# SDTM Timing Variables: Structure and Usage Across Domains\n\n## Overview of Timing Variables\n\nTiming variables in SDTM describe **when an observation occurred** and are available for use in any domain based on the three general observation classes (Interventions, Events, Findings), with class-specif",
      "usage": {
        "prompt_tokens": 13433,
        "completion_tokens": 1894,
        "total_tokens": 15327
      },
      "model": "deepseek/deepseek-chat",
      "elapsed_s": 14.04
    },
    {
      "id": "q37",
      "category": "concept",
      "question": "What are the Special-Purpose datasets in SDTM and which domains fall into this category?",
      "source_recall": 1.0,
      "source_hits": [
        "model/03_special_purpose_domains.md"
      ],
      "source_misses": [],
      "top5_sources": [
        "model/01_concepts_and_terms.md",
        "chapters/ch04_general_assumptions.md",
        "model/02_observation_classes.md",
        "model/03_special_purpose_domains.md",
        "model/06_relationship_datasets.md"
      ],
      "top5_similarities": [
        0.666,
        0.6636,
        0.6624,
        0.657,
        0.657
      ],
      "fact_recall": 0.75,
      "fact_hits": [
        "Special-Purpose",
        "DM",
        "CO"
      ],
      "fact_misses": [
        "SUPPQUAL"
      ],
      "answer_preview": "Based on the SDTM knowledge base, Special-Purpose datasets are a category of domains in the Study Data Tabulation Model (SDTM) that have specific standardized structures to represent additional important information beyond the three general observation classes (Interventions, Events, and Findings) *",
      "usage": {
        "prompt_tokens": 13557,
        "completion_tokens": 432,
        "total_tokens": 13989
      },
      "model": "deepseek/deepseek-chat",
      "elapsed_s": 4.68
    },
    {
      "id": "q38",
      "category": "concept",
      "question": "How are SDTM domain abbreviation codes assigned? What are the rules for the two-character domain code?",
      "source_recall": 0.0,
      "source_hits": [],
      "source_misses": [
        "chapters/ch02"
      ],
      "top5_sources": [
        "chapters/ch04_general_assumptions.md",
        "domains/TM/spec.md",
        "chapters/ch04_general_assumptions.md",
        "domains/SV/spec.md",
        "domains/DA/spec.md"
      ],
      "top5_similarities": [
        0.6971,
        0.6852,
        0.6759,
        0.6703,
        0.6691
      ],
      "fact_recall": 1.0,
      "fact_hits": [
        "two-character",
        "DOMAIN"
      ],
      "fact_misses": [],
      "answer_preview": "Based on the provided context, SDTM domain abbreviation codes are assigned based on the following rules:\n\nThe domain abbreviation is a **two-character code** that serves as the **Required Identifier** variable DOMAIN in each dataset. Its characteristics are:\n\n| Attribute | Value |\n|-----------|-----",
      "usage": {
        "prompt_tokens": 9464,
        "completion_tokens": 734,
        "total_tokens": 10198
      },
      "model": "deepseek/deepseek-chat",
      "elapsed_s": 6.52
    },
    {
      "id": "q39",
      "category": "concept",
      "question": "What is the Findings About observation class and how does it differ from the standard Findings class?",
      "source_recall": 0.0,
      "source_hits": [],
      "source_misses": [
        "model/02_observation_classes.md"
      ],
      "top5_sources": [
        "domains/CP/spec.md",
        "domains/DA/spec.md",
        "domains/DD/spec.md",
        "domains/EG/spec.md",
        "domains/FT/spec.md"
      ],
      "top5_similarities": [
        0.7123,
        0.7123,
        0.7123,
        0.7123,
        0.7123
      ],
      "fact_recall": 1.0,
      "fact_hits": [
        "Findings About",
        "FAOBJ"
      ],
      "fact_misses": [],
      "answer_preview": "## Findings About (FA) vs. Standard Findings Class\n\nThe **Findings About (FA)** domain is a **Findings class domain** with a specialized role: it captures qualifiers or additional details about **Events** or **Interventions** that cannot be represented within the original domain's structure. In cont",
      "usage": {
        "prompt_tokens": 8298,
        "completion_tokens": 739,
        "total_tokens": 9037
      },
      "model": "deepseek/deepseek-chat",
      "elapsed_s": 7.41
    },
    {
      "id": "q40",
      "category": "concept",
      "question": "What is the difference between collected data and derived data in SDTM, and how is the origin of a variable value indicated?",
      "source_recall": 1.0,
      "source_hits": [
        "chapters/ch04"
      ],
      "source_misses": [],
      "top5_sources": [
        "domains/LB/assumptions.md",
        "chapters/ch04_general_assumptions.md",
        "model/01_concepts_and_terms.md",
        "model/01_concepts_and_terms.md",
        "model/05_study_level_data.md"
      ],
      "top5_similarities": [
        0.6417,
        0.641,
        0.6331,
        0.6181,
        0.6092
      ],
      "fact_recall": 1.0,
      "fact_hits": [
        "Collected",
        "Derived",
        "Origin"
      ],
      "fact_misses": [],
      "answer_preview": "## Collected vs. Derived Data in SDTM\n\n### Definitions\n\n**Collected data** refers to values that are directly obtained from the source (e.g., CRF, vendor, device) without transformation. Per SDTMIG guidance, \"data could be collected (on the CRF, from a vendor, or from a device)\" [Source: chapters/ch",
      "usage": {
        "prompt_tokens": 13847,
        "completion_tokens": 631,
        "total_tokens": 14478
      },
      "model": "deepseek/deepseek-chat",
      "elapsed_s": 5.77
    },
    {
      "id": "q41",
      "category": "concept",
      "question": "What are the Trial Design Model datasets in SDTM and what kind of study-level information do they capture?",
      "source_recall": 1.0,
      "source_hits": [
        "model/05_study_level_data.md"
      ],
      "source_misses": [],
      "top5_sources": [
        "model/05_study_level_data.md",
        "domains/TA/spec.md",
        "domains/TD/spec.md",
        "domains/TE/spec.md",
        "domains/TI/spec.md"
      ],
      "top5_similarities": [
        0.8164,
        0.6611,
        0.6611,
        0.6611,
        0.6611
      ],
      "fact_recall": 1.0,
      "fact_hits": [
        "Trial Design",
        "TA",
        "TE",
        "TV"
      ],
      "fact_misses": [],
      "answer_preview": "## Trial Design Model Datasets in SDTM\n\nThe Trial Design Model (TDM) is one of two types of **study-level data** in SDTM (the other being Study Reference Datasets). **[Source: model/05_study_level_data.md — Overview]**\n\n### Purpose\n\nThe Trial Design Model provides a standardized way to describe the ",
      "usage": {
        "prompt_tokens": 11220,
        "completion_tokens": 780,
        "total_tokens": 12000
      },
      "model": "deepseek/deepseek-chat",
      "elapsed_s": 7.76
    },
    {
      "id": "q16",
      "category": "mixed",
      "question": "What values are allowed for AESEV and what is its codelist code?",
      "source_recall": 0.5,
      "source_hits": [
        "domains/AE/spec.md"
      ],
      "source_misses": [
        "terminology/core/ae.md"
      ],
      "top5_sources": [
        "domains/AE/assumptions.md",
        "domains/AE/spec.md",
        "domains/AE/assumptions.md",
        "domains/AE/spec.md",
        "terminology/supplementary/supplementary_part1.md"
      ],
      "top5_similarities": [
        0.6134,
        0.602,
        0.54,
        0.532,
        0.5192
      ],
      "fact_recall": 1.0,
      "fact_hits": [
        "C66769",
        "MILD",
        "MODERATE",
        "SEVERE"
      ],
      "fact_misses": [],
      "answer_preview": "Based on the retrieved context, **AESEV** (Severity/Intensity) uses codelist code **C66769**.\n\nThe allowed values include examples such as \"MILD\", \"MODERATE\", and \"SEVERE\" **[Source: domains/AE/spec.md -- AESEV]**.\n\n**AESEV Variable Definition:**\n\n| Attribute | Value |\n|-----------|-------|\n| **Labe",
      "usage": {
        "prompt_tokens": 9729,
        "completion_tokens": 230,
        "total_tokens": 9959
      },
      "model": "deepseek/deepseek-chat",
      "elapsed_s": 2.5
    },
    {
      "id": "q17",
      "category": "mixed",
      "question": "How are date and time variables formatted in SDTM and what suffix do they use?",
      "source_recall": 1.0,
      "source_hits": [
        "chapters/ch04"
      ],
      "source_misses": [],
      "top5_sources": [
        "chapters/ch04_general_assumptions.md",
        "domains/VS/spec.md",
        "chapters/ch04_general_assumptions.md",
        "model/01_concepts_and_terms.md",
        "model/01_concepts_and_terms.md"
      ],
      "top5_similarities": [
        0.763,
        0.6402,
        0.6209,
        0.6154,
        0.6139
      ],
      "fact_recall": 1.0,
      "fact_hits": [
        "ISO 8601",
        "DTC"
      ],
      "fact_misses": [],
      "answer_preview": "## Date/Time Variables in SDTM — Format and Suffix\n\n### Format\n\nDate/time variables in SDTM are **character (Char)** variables stored using the **ISO 8601 extended format**, specifically the following pattern:\n\n`YYYY-MM-DDThh:mm:ss(.n+)?(((+|-)hh:mm)|Z)?`\n\n**Key rules:**\n- **Extended format is requi",
      "usage": {
        "prompt_tokens": 13706,
        "completion_tokens": 764,
        "total_tokens": 14470
      },
      "model": "deepseek/deepseek-chat",
      "elapsed_s": 5.99
    },
    {
      "id": "q18",
      "category": "mixed",
      "question": "Explain the MedDRA coding chain for adverse events from verbatim term to dictionary term.",
      "source_recall": 1.0,
      "source_hits": [
        "domains/AE/spec.md",
        "domains/AE/assumptions.md"
      ],
      "source_misses": [],
      "top5_sources": [
        "chapters/ch04_general_assumptions.md",
        "domains/MH/assumptions.md",
        "domains/AE/assumptions.md",
        "terminology/core/trial_design.md",
        "domains/AE/spec.md"
      ],
      "top5_similarities": [
        0.6726,
        0.6303,
        0.6289,
        0.6197,
        0.6135
      ],
      "fact_recall": 1.0,
      "fact_hits": [
        "AETERM",
        "AEMODIFY",
        "AEDECOD",
        "Preferred Term"
      ],
      "fact_misses": [],
      "answer_preview": "## MedDRA Coding Chain for Adverse Events\n\nThe MedDRA coding chain from verbatim term to dictionary-derived terms follows a structured hierarchy as defined in the Events Observation Class model, with specific variables in the AE domain capturing different levels of the MedDRA hierarchy.\n\n### Chain O",
      "usage": {
        "prompt_tokens": 13865,
        "completion_tokens": 1147,
        "total_tokens": 15012
      },
      "model": "deepseek/deepseek-chat",
      "elapsed_s": 8.38
    },
    {
      "id": "q19",
      "category": "mixed",
      "question": "What controlled terminology codelist is used for DSDECOD when DSCAT equals 'DISPOSITION EVENT', and list specific CDISC Submission Values from that codelist for reasons of non-completion.",
      "source_recall": 1.0,
      "source_hits": [
        "domains/DS/assumptions.md",
        "terminology/core/disposition.md"
      ],
      "source_misses": [],
      "top5_sources": [
        "domains/DS/spec.md",
        "domains/DS/assumptions.md",
        "domains/DS/spec.md",
        "domains/DS/assumptions.md",
        "domains/DS/spec.md"
      ],
      "top5_similarities": [
        0.8036,
        0.7554,
        0.7248,
        0.7186,
        0.7037
      ],
      "fact_recall": 1.0,
      "fact_hits": [
        "NCOMPLT",
        "C66727"
      ],
      "fact_misses": [],
      "answer_preview": "## DSDECOD Codelist for DSCAT = \"DISPOSITION EVENT\"\n\nWhen DSCAT = \"DISPOSITION EVENT\", DSDECOD uses the **Completion/Reason for Non-Completion (C66727)** codelist, which corresponds to the CDISC Submission Value codelist **\"NCOMPLT\"**.\n\n**[Source: domains/DS/spec.md — DSDECOD]** — States: *\"Codelist",
      "usage": {
        "prompt_tokens": 10644,
        "completion_tokens": 785,
        "total_tokens": 11429
      },
      "model": "deepseek/deepseek-chat",
      "elapsed_s": 6.56
    },
    {
      "id": "q20",
      "category": "mixed",
      "question": "In the DM domain, what is the difference between the RFSTDTC/RFENDTC reference period pair and the RFXSTDTC/RFXENDTC pair, and under what circumstances will RFSTDTC be null?",
      "source_recall": 1.0,
      "source_hits": [
        "domains/DM/assumptions.md",
        "domains/DM/spec.md"
      ],
      "source_misses": [],
      "top5_sources": [
        "domains/DM/assumptions.md",
        "domains/DM/assumptions.md",
        "domains/DM/spec.md",
        "domains/DM/spec.md",
        "domains/DM/assumptions.md"
      ],
      "top5_similarities": [
        0.6645,
        0.6585,
        0.624,
        0.5839,
        0.5808
      ],
      "fact_recall": 1.0,
      "fact_hits": [
        "sponsor-defined",
        "screen failure"
      ],
      "fact_misses": [],
      "answer_preview": "## Difference between RFSTDTC/RFENDTC and RFXSTDTC/RFXENDTC in DM\n\n### RFSTDTC / RFENDTC (Sponsor-Defined Reference Period)\n\n- **RFSTDTC** (Subject Reference Start Date/Time) and **RFENDTC** (Subject Reference End Date/Time) are **sponsor-defined** reference period variables.\n- **RFSTDTC** — Type: D",
      "usage": {
        "prompt_tokens": 10500,
        "completion_tokens": 995,
        "total_tokens": 11495
      },
      "model": "deepseek/deepseek-chat",
      "elapsed_s": 8.06
    },
    {
      "id": "q42",
      "category": "mixed",
      "question": "In the LB domain, how are normal ranges represented using LBORNRLO and LBORNRHI, and what is the LBNRIND variable used for?",
      "source_recall": 1.0,
      "source_hits": [
        "domains/LB/spec.md",
        "domains/LB/assumptions.md"
      ],
      "source_misses": [],
      "top5_sources": [
        "domains/LB/spec.md",
        "domains/LB/assumptions.md",
        "domains/LB/assumptions.md",
        "domains/LB/spec.md",
        "domains/LB/spec.md"
      ],
      "top5_similarities": [
        0.7713,
        0.764,
        0.7123,
        0.6935,
        0.6933
      ],
      "fact_recall": 1.0,
      "fact_hits": [
        "LBORNRLO",
        "LBORNRHI",
        "LBNRIND"
      ],
      "fact_misses": [],
      "answer_preview": "Based on the context provided, here is how normal ranges are represented in the LB domain using LBORNRLO and LBORNRHI, and the purpose of the LBNRIND variable.\n\n### Representation of Normal Ranges using LBORNRLO and LBORNRHI\n\n- **LBORNRLO** (Reference Range Lower Limit in Orig Unit) is a Variable Qu",
      "usage": {
        "prompt_tokens": 10728,
        "completion_tokens": 576,
        "total_tokens": 11304
      },
      "model": "deepseek/deepseek-chat",
      "elapsed_s": 4.6
    },
    {
      "id": "q43",
      "category": "mixed",
      "question": "What is the controlled terminology codelist for the SEX variable in the DM domain? Provide the codelist code and describe the Core designation.",
      "source_recall": 1.0,
      "source_hits": [
        "domains/DM/spec.md"
      ],
      "source_misses": [],
      "top5_sources": [
        "domains/DM/spec.md",
        "domains/DS/spec.md",
        "domains/RELREC/spec.md",
        "chapters/ch04_general_assumptions.md",
        "domains/DM/spec.md"
      ],
      "top5_similarities": [
        0.6578,
        0.6522,
        0.6346,
        0.633,
        0.6311
      ],
      "fact_recall": 1.0,
      "fact_hits": [
        "SEX",
        "C66731",
        "Req"
      ],
      "fact_misses": [],
      "answer_preview": "The controlled terminology codelist for the **SEX** variable in the **DM** domain is **C66731** (\"Sex\").\n\n- **Codelist Code:** C66731 **[Source: domains/DM/spec.md — SEX]**\n- **Core designation:** **Req** (Required) — meaning this variable must be present for every subject record in the DM domain. *",
      "usage": {
        "prompt_tokens": 9608,
        "completion_tokens": 92,
        "total_tokens": 9700
      },
      "model": "deepseek/deepseek-chat",
      "elapsed_s": 1.74
    },
    {
      "id": "q44",
      "category": "mixed",
      "question": "In the VS domain, what is the controlled terminology codelist code for VSTESTCD, and give examples of standard vital signs test codes like systolic and diastolic blood pressure.",
      "source_recall": 1.0,
      "source_hits": [
        "domains/VS/spec.md"
      ],
      "source_misses": [],
      "top5_sources": [
        "domains/VS/spec.md",
        "domains/VS/assumptions.md",
        "domains/VS/spec.md",
        "domains/CV/spec.md",
        "domains/VS/spec.md"
      ],
      "top5_similarities": [
        0.7284,
        0.687,
        0.6737,
        0.6367,
        0.6183
      ],
      "fact_recall": 1.0,
      "fact_hits": [
        "C66741",
        "SYSBP",
        "DIABP"
      ],
      "fact_misses": [],
      "answer_preview": "Based on the SDTMIG v3.4 knowledge base, the controlled terminology codelist code for VSTESTCD in the Vital Signs (VS) domain is **C66741**. Standard vital signs test codes for systolic and diastolic blood pressure are \"SYSBP\" and \"DIABP\", respectively.\n\n**Source for C66741:** [domains/VS/spec.md] —",
      "usage": {
        "prompt_tokens": 10274,
        "completion_tokens": 149,
        "total_tokens": 10423
      },
      "model": "deepseek/deepseek-chat",
      "elapsed_s": 2.03
    },
    {
      "id": "q45",
      "category": "mixed",
      "question": "What is the RACE variable in the DM domain, what codelist does it use, and what is its Core designation?",
      "source_recall": 1.0,
      "source_hits": [
        "domains/DM/spec.md"
      ],
      "source_misses": [],
      "top5_sources": [
        "domains/DM/spec.md",
        "domains/DM/assumptions.md",
        "domains/DM/examples.md",
        "domains/DM/examples.md",
        "domains/CO/spec.md"
      ],
      "top5_similarities": [
        0.6135,
        0.6038,
        0.5707,
        0.5662,
        0.5643
      ],
      "fact_recall": 1.0,
      "fact_hits": [
        "RACE",
        "C74457",
        "Exp"
      ],
      "fact_misses": [],
      "answer_preview": "## RACE Variable in DM Domain\n\n**RACE** is a variable in the Demographics (DM) domain that contains the race of the subject.\n\n### Variable Definition\n\n| Attribute | Value |\n|-----------|-------|\n| **Variable Name** | RACE |\n| **Order** | 22 |\n| **Label** | Race |\n| **Type** | Char |\n| **Controlled T",
      "usage": {
        "prompt_tokens": 12923,
        "completion_tokens": 407,
        "total_tokens": 13330
      },
      "model": "deepseek/deepseek-chat",
      "elapsed_s": 3.9
    },
    {
      "id": "q46",
      "category": "mixed",
      "question": "What is the AEOUT (Outcome of Adverse Event) variable in the AE domain and what controlled terminology codelist code does it use?",
      "source_recall": 1.0,
      "source_hits": [
        "domains/AE/spec.md"
      ],
      "source_misses": [],
      "top5_sources": [
        "domains/AE/spec.md",
        "domains/AE/assumptions.md",
        "domains/AE/spec.md",
        "domains/AE/spec.md",
        "domains/AE/spec.md"
      ],
      "top5_similarities": [
        0.7992,
        0.7025,
        0.6582,
        0.628,
        0.6235
      ],
      "fact_recall": 1.0,
      "fact_hits": [
        "AEOUT",
        "C66768",
        "Perm"
      ],
      "fact_misses": [],
      "answer_preview": "Based on the retrieved context, here is the definition and controlled terminology reference for the **AEOUT** variable in the AE domain:\n\n**Variable Definition**\n- **Label:** Outcome of Adverse Event\n- **Type:** Char\n- **Role:** Record Qualifier\n- **Core:** Perm (Permissible)\n- **CDISC Notes:** Desc",
      "usage": {
        "prompt_tokens": 11436,
        "completion_tokens": 154,
        "total_tokens": 11590
      },
      "model": "deepseek/deepseek-chat",
      "elapsed_s": 2.26
    },
    {
      "id": "q47",
      "category": "mixed",
      "question": "How do QS (Questionnaires) domains handle instrument-specific variables using QSCAT, and what role does QSTESTCD play in organizing question-level data?",
      "source_recall": 1.0,
      "source_hits": [
        "domains/QS/spec.md",
        "domains/QS/assumptions.md"
      ],
      "source_misses": [],
      "top5_sources": [
        "domains/QS/spec.md",
        "chapters/ch04_general_assumptions.md",
        "domains/SUPPQUAL/examples.md",
        "domains/FT/assumptions.md",
        "domains/QS/assumptions.md"
      ],
      "top5_similarities": [
        0.6923,
        0.6635,
        0.6612,
        0.6505,
        0.6505
      ],
      "fact_recall": 1.0,
      "fact_hits": [
        "QSTESTCD",
        "QSCAT",
        "Topic"
      ],
      "fact_misses": [],
      "answer_preview": "## QS Domain: QSCAT and QSTESTCD Roles\n\n### QSCAT — Category of Question\n\n**QSCAT** serves as a **Grouping Qualifier** (Req) that identifies the specific questionnaire instrument used. **[Source: domains/QS/spec.md — QSCAT]**\n\n- **Controlled Terms:** C100129 (Category of Questionnaire)\n- **Examples:",
      "usage": {
        "prompt_tokens": 12695,
        "completion_tokens": 1048,
        "total_tokens": 13743
      },
      "model": "deepseek/deepseek-chat",
      "elapsed_s": 9.26
    },
    {
      "id": "q48",
      "category": "mixed",
      "question": "What is the FATESTCD variable's controlled terminology codelist code in the FA domain, and give examples of standard FA test codes?",
      "source_recall": 1.0,
      "source_hits": [
        "domains/FA/spec.md"
      ],
      "source_misses": [],
      "top5_sources": [
        "domains/FA/spec.md",
        "domains/FA/spec.md",
        "domains/FT/spec.md",
        "domains/FA/assumptions.md",
        "domains/FA/spec.md"
      ],
      "top5_similarities": [
        0.678,
        0.6766,
        0.6573,
        0.6327,
        0.6314
      ],
      "fact_recall": 1.0,
      "fact_hits": [
        "FATESTCD",
        "C101832"
      ],
      "fact_misses": [],
      "answer_preview": "Based on the provided context, the controlled terminology codelist for FATESTCD in the FA domain is **C101832** (Findings About Test Code). **[Source: domains/FA/spec.md — FATESTCD]**\n\nStandard FA test code examples include:\n- \"SEV\" (for Severity/Intensity)\n- \"OCCUR\" (for Occurrence)\n\n**[Source: dom",
      "usage": {
        "prompt_tokens": 10201,
        "completion_tokens": 93,
        "total_tokens": 10294
      },
      "model": "deepseek/deepseek-chat",
      "elapsed_s": 1.52
    },
    {
      "id": "s01",
      "category": "single_domain",
      "question": "In the DM domain, what is the controlled terminology codelist code for the SEX variable, and what are its four permitted submission values?",
      "source_recall": 1.0,
      "source_hits": [
        "terminology/core/dm.md",
        "domains/DM/spec.md"
      ],
      "source_misses": [],
      "top5_sources": [
        "domains/DM/spec.md",
        "chapters/ch04_general_assumptions.md",
        "terminology/supplementary/supplementary_part5.md",
        "terminology/core/dm.md",
        "domains/DM/spec.md"
      ],
      "top5_similarities": [
        0.6528,
        0.5936,
        0.5929,
        0.5864,
        0.5862
      ],
      "fact_recall": 1.0,
      "fact_hits": [
        "C66731",
        "F",
        "M",
        "U",
        "UNDIFFERENTIATED"
      ],
      "fact_misses": [],
      "answer_preview": "Based on the retrieved context, the controlled terminology codelist code for the **SEX** variable in the DM domain is **C66731**, and it has **four** permitted submission values. The variable is defined as follows:\n\n- **SEX:**\n  - **Label:** Sex\n  - **Type:** Char\n  - **Controlled Terms Code:** C667",
      "usage": {
        "prompt_tokens": 10075,
        "completion_tokens": 324,
        "total_tokens": 10399
      },
      "model": "deepseek/deepseek-chat",
      "elapsed_s": 2.86
    },
    {
      "id": "s02",
      "category": "concept",
      "question": "What is the SUPPQUAL variable QNAM and what character constraints apply to it? What is the maximum length and what characters are allowed?",
      "source_recall": 1.0,
      "source_hits": [
        "domains/SUPPQUAL/spec.md",
        "model/06_relationship_datasets.md"
      ],
      "source_misses": [],
      "top5_sources": [
        "chapters/ch08_relationships.md",
        "domains/SUPPQUAL/spec.md",
        "chapters/ch08_relationships.md",
        "VARIABLE_INDEX.md",
        "domains/SUPPQUAL/spec.md"
      ],
      "top5_similarities": [
        0.6731,
        0.6726,
        0.6558,
        0.6533,
        0.6267
      ],
      "fact_recall": 1.0,
      "fact_hits": [
        "QNAM",
        "8 characters",
        "letters, numbers, or underscores",
        "cannot start with a number",
        "Qualifier Variable Name"
      ],
      "fact_misses": [],
      "answer_preview": "## SUPPQUAL — QNAM Variable Definition\n\n**QNAM** (Qualifier Variable Name) is the **Topic** variable in the SUPPQUAL dataset. It serves as the short name of the supplemental qualifier, which is used as a column name when the SUPP-- data is transposed back into a domain view with the parent domain's ",
      "usage": {
        "prompt_tokens": 15662,
        "completion_tokens": 509,
        "total_tokens": 16171
      },
      "model": "deepseek/deepseek-chat",
      "elapsed_s": 4.42
    },
    {
      "id": "s03",
      "category": "cross_domain",
      "question": "The DM variable RFXSTDTC is defined as equal to the earliest value of which variable in the EX domain? Similarly, RFXENDTC is equal to the latest value of which EX variable (or which fallback variable if that is not collected)?",
      "source_recall": 1.0,
      "source_hits": [
        "domains/DM/spec.md",
        "domains/EX/spec.md"
      ],
      "source_misses": [],
      "top5_sources": [
        "domains/DM/assumptions.md",
        "domains/DM/spec.md",
        "domains/DM/assumptions.md",
        "domains/DM/spec.md",
        "domains/DM/assumptions.md"
      ],
      "top5_similarities": [
        0.6708,
        0.6568,
        0.6371,
        0.6269,
        0.5943
      ],
      "fact_recall": 1.0,
      "fact_hits": [
        "EXSTDTC",
        "RFXSTDTC",
        "EXENDTC",
        "RFXENDTC",
        "earliest",
        "latest"
      ],
      "fact_misses": [],
      "answer_preview": "Based on the retrieved context, **RFXSTDTC** is defined as equal to the earliest value of **EXSTDTC** in the EX domain.\n\n**RFXENDTC** is defined as equal to the latest value of **EXENDTC** (or the latest value of **EXSTDTC** if EXENDTC was not collected or is missing).\n\n**Sources:**\n- RFXSTDTC defin",
      "usage": {
        "prompt_tokens": 10690,
        "completion_tokens": 199,
        "total_tokens": 10889
      },
      "model": "deepseek/deepseek-chat",
      "elapsed_s": 2.01
    },
    {
      "id": "s04",
      "category": "mixed",
      "question": "In the AE domain, what is the controlled terminology codelist code for the AEACN (Action Taken with Study Treatment) variable, and what ICH E2B example values does the CDISC Notes field list for this variable?",
      "source_recall": 0.5,
      "source_hits": [
        "domains/AE/spec.md"
      ],
      "source_misses": [
        "terminology/core/ae.md"
      ],
      "top5_sources": [
        "domains/AE/spec.md",
        "domains/AE/assumptions.md",
        "domains/AE/spec.md",
        "domains/AE/assumptions.md",
        "domains/AE/spec.md"
      ],
      "top5_similarities": [
        0.7623,
        0.6843,
        0.681,
        0.676,
        0.6686
      ],
      "fact_recall": 1.0,
      "fact_hits": [
        "C66767",
        "DRUG WITHDRAWN",
        "DOSE REDUCED",
        "DOSE INCREASED",
        "DOSE NOT CHANGED",
        "UNKNOWN",
        "NOT APPLICABLE"
      ],
      "fact_misses": [],
      "answer_preview": "Based on the retrieved context, the controlled terminology codelist code for AEACN (Action Taken with Study Treatment) is **C66767**. The CDISC Notes field lists the following ICH E2B example values: \"DRUG WITHDRAWN\", \"DOSE REDUCED\", \"DOSE INCREASED\", \"DOSE NOT CHANGED\", \"UNKNOWN\", and \"NOT APPLICAB",
      "usage": {
        "prompt_tokens": 9931,
        "completion_tokens": 184,
        "total_tokens": 10115
      },
      "model": "deepseek/deepseek-chat",
      "elapsed_s": 1.83
    },
    {
      "id": "s05",
      "category": "single_domain",
      "question": "In the VS domain, what is the controlled terminology codelist code for the VSTESTCD variable? Name the codelist, state whether it is extensible, and give three example TESTCD values listed for blood pressure and heart rate.",
      "source_recall": 0.5,
      "source_hits": [
        "domains/VS/spec.md"
      ],
      "source_misses": [
        "terminology/core/vs.md"
      ],
      "top5_sources": [
        "domains/VS/assumptions.md",
        "domains/VS/spec.md",
        "domains/VS/spec.md",
        "domains/VS/spec.md",
        "domains/CV/spec.md"
      ],
      "top5_similarities": [
        0.6774,
        0.6639,
        0.6597,
        0.6488,
        0.6393
      ],
      "fact_recall": 0.8333,
      "fact_hits": [
        "C66741",
        "Vital Signs Test Code",
        "SYSBP",
        "DIABP",
        "HR"
      ],
      "fact_misses": [
        "Extensible: Yes"
      ],
      "answer_preview": "Based on the context provided:\n\n**Codelist Code:** C66741\n\n**Variable:** VSTESTCD (Vital Signs Test Short Name)  \n**Label:** Vital Signs Test Short Name  \n**Type:** Char  \n**Role:** Topic  \n**Core:** Req  \n\n**[Source: domains/VS/spec.md — VSTESTCD]**\n\n---\n\n**Codelist Name:** Vital Signs Test Code (C",
      "usage": {
        "prompt_tokens": 10527,
        "completion_tokens": 415,
        "total_tokens": 10942
      },
      "model": "deepseek/deepseek-chat",
      "elapsed_s": 4.19
    },
    {
      "id": "q54",
      "category": "single_domain",
      "question": "In the DV (Protocol Deviations) domain, which observation class does it belong to and what is the Topic variable DVTERM?",
      "source_recall": 1.0,
      "source_hits": [
        "domains/DV/spec.md"
      ],
      "source_misses": [],
      "top5_sources": [
        "domains/DV/assumptions.md",
        "domains/DV/spec.md",
        "VARIABLE_INDEX.md",
        "domains/DV/spec.md",
        "domains/DV/spec.md"
      ],
      "top5_similarities": [
        0.7551,
        0.7536,
        0.6742,
        0.664,
        0.6494
      ],
      "fact_recall": 1.0,
      "fact_hits": [
        "Events",
        "DVTERM",
        "Protocol Deviation Term",
        "Topic"
      ],
      "fact_misses": [],
      "answer_preview": "Based on the provided context, the DV (Protocol Deviations) domain belongs to the **Events** observation class, and the Topic variable **DVTERM** is defined as follows:\n\n## Observation Class\nDV is an **Events** model domain, as explicitly stated in the domain assumptions:\n- *\"The DV domain is an Eve",
      "usage": {
        "prompt_tokens": 10094,
        "completion_tokens": 419,
        "total_tokens": 10513
      },
      "model": "deepseek/deepseek-chat",
      "elapsed_s": 3.42
    },
    {
      "id": "q55",
      "category": "single_domain",
      "question": "What is the structure and observation class of the DS (Disposition) domain, and what is the role of the DSTERM variable?",
      "source_recall": 1.0,
      "source_hits": [
        "domains/DS/spec.md"
      ],
      "source_misses": [],
      "top5_sources": [
        "domains/DS/spec.md",
        "VARIABLE_INDEX.md",
        "domains/DS/assumptions.md",
        "domains/DS/assumptions.md",
        "domains/DS/spec.md"
      ],
      "top5_similarities": [
        0.6292,
        0.6232,
        0.5974,
        0.5828,
        0.5718
      ],
      "fact_recall": 1.0,
      "fact_hits": [
        "Events",
        "DSTERM",
        "Topic",
        "disposition"
      ],
      "fact_misses": [],
      "answer_preview": "Based on the retrieved context, the Disposition (DS) domain is an Events domain, and DSTERM is the required Topic variable for DS.\n\n### DS Domain Structure\n\nThe DS domain is classified as an **Events** general observation class domain. The index lists it as \"DS — Disposition (Events)\" **[Source: VAR",
      "usage": {
        "prompt_tokens": 11393,
        "completion_tokens": 838,
        "total_tokens": 12231
      },
      "model": "deepseek/deepseek-chat",
      "elapsed_s": 6.62
    },
    {
      "id": "q56",
      "category": "single_domain",
      "question": "In the SU (Substance Use) domain, what observation class is it and what is the SUTRT variable?",
      "source_recall": 1.0,
      "source_hits": [
        "domains/SU/spec.md"
      ],
      "source_misses": [],
      "top5_sources": [
        "VARIABLE_INDEX.md",
        "domains/SU/assumptions.md",
        "domains/SU/spec.md",
        "domains/SU/spec.md",
        "domains/SU/spec.md"
      ],
      "top5_similarities": [
        0.6706,
        0.6671,
        0.6606,
        0.6408,
        0.6341
      ],
      "fact_recall": 1.0,
      "fact_hits": [
        "Interventions",
        "SUTRT",
        "Reported Name of Substance",
        "Topic"
      ],
      "fact_misses": [],
      "answer_preview": "Based on the retrieved context, here are the answers:\n\n**Observation Class:** The SU (Substance Use) domain belongs to the **Interventions** observation class. This is indicated in the domain index and the VARIABLE_INDEX.md entry **[Source: VARIABLE_INDEX.md - SU — Substance Use (Interventions)]**.\n",
      "usage": {
        "prompt_tokens": 11235,
        "completion_tokens": 152,
        "total_tokens": 11387
      },
      "model": "deepseek/deepseek-chat",
      "elapsed_s": 2.12
    },
    {
      "id": "q57",
      "category": "single_domain",
      "question": "What is the PR (Procedures) domain used for, and what is the PRTRT topic variable along with its Core designation?",
      "source_recall": 1.0,
      "source_hits": [
        "domains/PR/spec.md"
      ],
      "source_misses": [],
      "top5_sources": [
        "domains/PR/spec.md",
        "VARIABLE_INDEX.md",
        "domains/PR/spec.md",
        "domains/PR/spec.md",
        "domains/PR/assumptions.md"
      ],
      "top5_similarities": [
        0.7274,
        0.6309,
        0.6198,
        0.6094,
        0.6075
      ],
      "fact_recall": 1.0,
      "fact_hits": [
        "Interventions",
        "PRTRT",
        "Reported Name of Procedure",
        "Req"
      ],
      "fact_misses": [],
      "answer_preview": "Based on the retrieved context, the PR (Procedures) domain is used to represent **all collected procedures** during a study. This includes a wide range of activities such as diagnostic tests (e.g., CT scan, biopsy), surgical procedures (e.g., stenting, hysterectomy), therapeutic procedures (e.g., ra",
      "usage": {
        "prompt_tokens": 10623,
        "completion_tokens": 263,
        "total_tokens": 10886
      },
      "model": "deepseek/deepseek-chat",
      "elapsed_s": 2.7
    },
    {
      "id": "q58",
      "category": "single_domain",
      "question": "Describe the TS (Trial Summary) domain structure and the TSPARMCD variable, including its controlled terminology codelist code and length limit.",
      "source_recall": 1.0,
      "source_hits": [
        "domains/TS/spec.md"
      ],
      "source_misses": [],
      "top5_sources": [
        "domains/TS/spec.md",
        "VARIABLE_INDEX.md",
        "domains/TS/spec.md",
        "domains/TS/spec.md",
        "domains/TS/assumptions.md"
      ],
      "top5_similarities": [
        0.7561,
        0.715,
        0.7044,
        0.7024,
        0.6609
      ],
      "fact_recall": 1.0,
      "fact_hits": [
        "Trial Summary",
        "TSPARMCD",
        "C66738",
        "8 characters"
      ],
      "fact_misses": [],
      "answer_preview": "# TS (Trial Summary) Domain Structure\n\n## Domain Overview\n\nThe Trial Summary (TS) dataset allows the sponsor to submit a summary of the trial in a structured format. Each record in the TS dataset contains the value of a parameter — a characteristic of the trial. For example, TS is used to record bas",
      "usage": {
        "prompt_tokens": 10428,
        "completion_tokens": 937,
        "total_tokens": 11365
      },
      "model": "deepseek/deepseek-chat",
      "elapsed_s": 6.44
    },
    {
      "id": "q59",
      "category": "single_domain",
      "question": "In the DD (Death Details) domain, what is the DDTESTCD variable and its controlled terminology codelist code?",
      "source_recall": 1.0,
      "source_hits": [
        "domains/DD/spec.md"
      ],
      "source_misses": [],
      "top5_sources": [
        "domains/DD/spec.md",
        "domains/DD/spec.md",
        "domains/DD/spec.md",
        "domains/DD/assumptions.md",
        "domains/DS/spec.md"
      ],
      "top5_similarities": [
        0.766,
        0.7599,
        0.7584,
        0.7042,
        0.6719
      ],
      "fact_recall": 1.0,
      "fact_hits": [
        "DDTESTCD",
        "C116108",
        "Topic"
      ],
      "fact_misses": [],
      "answer_preview": "Based on the context, the **DDTESTCD** variable in the **DD (Death Details)** domain is defined as follows:\n\n- **Label:** Death Detail Assessment Short Name\n- **Type:** Char\n- **Role:** Topic\n- **Core:** Req (Required)\n- **Controlled Terminology Codelist Code:** **C116108**\n\nThe CDISC Notes specify ",
      "usage": {
        "prompt_tokens": 9929,
        "completion_tokens": 166,
        "total_tokens": 10095
      },
      "model": "deepseek/deepseek-chat",
      "elapsed_s": 2.12
    },
    {
      "id": "q60",
      "category": "single_domain",
      "question": "What is the CE (Clinical Events) domain, which observation class does it belong to, and what is the CETERM variable?",
      "source_recall": 1.0,
      "source_hits": [
        "domains/CE/spec.md"
      ],
      "source_misses": [],
      "top5_sources": [
        "VARIABLE_INDEX.md",
        "domains/CE/spec.md",
        "domains/CE/assumptions.md",
        "domains/CE/spec.md",
        "domains/CE/spec.md"
      ],
      "top5_similarities": [
        0.6815,
        0.6749,
        0.6588,
        0.6509,
        0.6345
      ],
      "fact_recall": 1.0,
      "fact_hits": [
        "Events",
        "CETERM",
        "Topic",
        "Clinical Event"
      ],
      "fact_misses": [],
      "answer_preview": "## CE (Clinical Events) Domain Overview\n\n### Observation Class\n\nThe CE domain belongs to the **Events** general observation class **[Source: domains/CE/assumptions.md]**. The Events class follows a **\"One Record per Event\"** structure and represents occurrences, conditions, or incidents independent ",
      "usage": {
        "prompt_tokens": 11999,
        "completion_tokens": 385,
        "total_tokens": 12384
      },
      "model": "deepseek/deepseek-chat",
      "elapsed_s": 3.82
    },
    {
      "id": "q61",
      "category": "single_domain",
      "question": "In the MB (Microbiology Specimen) domain, what is the MBTESTCD variable, what observation class is MB, and what is the codelist code for MBTESTCD?",
      "source_recall": 1.0,
      "source_hits": [
        "domains/MB/spec.md"
      ],
      "source_misses": [],
      "top5_sources": [
        "domains/MB/assumptions.md",
        "domains/MB/spec.md",
        "domains/MB/spec.md",
        "domains/MB/spec.md",
        "domains/MB/spec.md"
      ],
      "top5_similarities": [
        0.7557,
        0.7379,
        0.7148,
        0.7117,
        0.7002
      ],
      "fact_recall": 1.0,
      "fact_hits": [
        "Findings",
        "MBTESTCD",
        "C120527",
        "Topic"
      ],
      "fact_misses": [],
      "answer_preview": "Based on the SDTM knowledge base:\n\n**MBTESTCD** is defined as:\n- **Label:** Microbiology Test or Finding Short Name\n- **Type:** Char\n- **Controlled Terms:** C120527\n- **Role:** Topic\n- **Core:** Req (Required)\n- **CDISC Notes:** Short name of the measurement, test, or finding described in MBTEST. It",
      "usage": {
        "prompt_tokens": 15160,
        "completion_tokens": 316,
        "total_tokens": 15476
      },
      "model": "deepseek/deepseek-chat",
      "elapsed_s": 3.3
    },
    {
      "id": "q62",
      "category": "single_domain",
      "question": "What is the SS (Subject Status) domain, what is the SSTESTCD variable, and what controlled terminology codelist does it use?",
      "source_recall": 1.0,
      "source_hits": [
        "domains/SS/spec.md"
      ],
      "source_misses": [],
      "top5_sources": [
        "domains/SS/spec.md",
        "domains/SS/spec.md",
        "domains/SS/spec.md",
        "domains/SC/spec.md",
        "VARIABLE_INDEX.md"
      ],
      "top5_similarities": [
        0.7493,
        0.6959,
        0.6925,
        0.6745,
        0.664
      ],
      "fact_recall": 1.0,
      "fact_hits": [
        "SSTESTCD",
        "C124305",
        "Findings",
        "Topic"
      ],
      "fact_misses": [],
      "answer_preview": "## SS (Subject Status) Domain\n\nThe SS (Subject Status) domain is a **Findings** class domain used to capture subject-level status assessments, such as survival status. It records categorical findings about a subject's status at a given point in time. **[Source: domains/SS/assumptions.md]**\n\n## SSTES",
      "usage": {
        "prompt_tokens": 9931,
        "completion_tokens": 383,
        "total_tokens": 10314
      },
      "model": "deepseek/deepseek-chat",
      "elapsed_s": 3.48
    },
    {
      "id": "q63",
      "category": "single_domain",
      "question": "In the SC (Subject Characteristics) domain, what observation class is it and what is its dataset structure?",
      "source_recall": 1.0,
      "source_hits": [
        "domains/SC/spec.md"
      ],
      "source_misses": [],
      "top5_sources": [
        "domains/SC/assumptions.md",
        "domains/SC/examples.md",
        "VARIABLE_INDEX.md",
        "domains/SC/spec.md",
        "model/02_observation_classes.md"
      ],
      "top5_similarities": [
        0.625,
        0.612,
        0.6118,
        0.6075,
        0.6067
      ],
      "fact_recall": 1.0,
      "fact_hits": [
        "Findings",
        "one record per characteristic",
        "Subject Characteristics"
      ],
      "fact_misses": [],
      "answer_preview": "Based on the retrieved context, the SC (Subject Characteristics) domain is based on the **Findings** general observation class. Its dataset structure is **\"One record per characteristic per visit per subject\"**.\n\n**Evidence:**\n\n*   The SC domain assumptions state that it is \"based on the Findings ge",
      "usage": {
        "prompt_tokens": 9925,
        "completion_tokens": 138,
        "total_tokens": 10063
      },
      "model": "deepseek/deepseek-chat",
      "elapsed_s": 2.31
    },
    {
      "id": "q64",
      "category": "single_domain",
      "question": "What is the PC (Pharmacokinetics Concentrations) domain used for and what is the structure of one record in this dataset?",
      "source_recall": 1.0,
      "source_hits": [
        "domains/PC/spec.md"
      ],
      "source_misses": [],
      "top5_sources": [
        "domains/PC/assumptions.md",
        "domains/PC/examples.md",
        "VARIABLE_INDEX.md",
        "domains/PC/assumptions.md",
        "chapters/ch08_relationships.md"
      ],
      "top5_similarities": [
        0.7165,
        0.6321,
        0.6106,
        0.5979,
        0.5937
      ],
      "fact_recall": 1.0,
      "fact_hits": [
        "Findings",
        "concentration",
        "analyte"
      ],
      "fact_misses": [],
      "answer_preview": "## PC Domain — Purpose and Record Structure\n\n### Purpose\n\nThe PC (Pharmacokinetics Concentrations) domain is a **Findings** class domain used to represent **plasma (or other specimen) drug concentration as a function of time**, including drug and metabolite concentration measurements as well as spec",
      "usage": {
        "prompt_tokens": 16313,
        "completion_tokens": 553,
        "total_tokens": 16866
      },
      "model": "deepseek/deepseek-chat",
      "elapsed_s": 5.01
    },
    {
      "id": "q65",
      "category": "single_domain",
      "question": "In the DA (Product Accountability) domain, what observation class does it belong to and what is the structure of the dataset?",
      "source_recall": 1.0,
      "source_hits": [
        "domains/DA/spec.md"
      ],
      "source_misses": [],
      "top5_sources": [
        "model/02_observation_classes.md",
        "VARIABLE_INDEX.md",
        "model/03_special_purpose_domains.md",
        "domains/DA/spec.md",
        "domains/FA/spec.md"
      ],
      "top5_similarities": [
        0.5583,
        0.552,
        0.5483,
        0.5267,
        0.4975
      ],
      "fact_recall": 0.6667,
      "fact_hits": [
        "Findings",
        "Product Accountability"
      ],
      "fact_misses": [
        "per subject"
      ],
      "answer_preview": "Based on the retrieved context, the DA (Product Accountability) domain belongs to the **Findings** general observation class.\n\nThe DA domain structure follows the Findings class pattern, which includes standard identifier, timing, and topic/qualifier variables. The dataset structure for DA is docume",
      "usage": {
        "prompt_tokens": 9544,
        "completion_tokens": 256,
        "total_tokens": 9800
      },
      "model": "deepseek/deepseek-chat",
      "elapsed_s": 2.78
    },
    {
      "id": "q66",
      "category": "cross_domain",
      "question": "Which SDTM domains include the VISITNUM timing variable?",
      "source_recall": 0.0,
      "source_hits": [],
      "source_misses": [
        "VARIABLE_INDEX.md"
      ],
      "top5_sources": [
        "domains/SU/assumptions.md",
        "chapters/ch04_general_assumptions.md",
        "domains/EX/assumptions.md",
        "domains/AG/spec.md",
        "domains/FA/spec.md"
      ],
      "top5_similarities": [
        0.685,
        0.6828,
        0.6769,
        0.6569,
        0.6563
      ],
      "fact_recall": 0.5,
      "fact_hits": [
        "VISITNUM",
        "LB"
      ],
      "fact_misses": [
        "Visit Number",
        "VS"
      ],
      "answer_preview": "Based on the retrieved context, I can confirm that **VISITNUM** is used as a timing variable in several domains, but the specific list of domains is not fully enumerated in the provided excerpts.\n\nFrom the context, VISITNUM is mentioned as being used in or applicable to the following domains:\n\n- **S",
      "usage": {
        "prompt_tokens": 9840,
        "completion_tokens": 395,
        "total_tokens": 10235
      },
      "model": "deepseek/deepseek-chat",
      "elapsed_s": 3.88
    },
    {
      "id": "q67",
      "category": "cross_domain",
      "question": "Many SDTM variables use the No Yes Response codelist C66742. How many variables reference it and give some examples of AE seriousness variables that use it.",
      "source_recall": 0.0,
      "source_hits": [],
      "source_misses": [
        "VARIABLE_INDEX.md"
      ],
      "top5_sources": [
        "terminology/core/general_part4.md",
        "chapters/ch04_general_assumptions.md",
        "domains/AE/assumptions.md",
        "domains/CE/spec.md",
        "domains/AE/examples.md"
      ],
      "top5_similarities": [
        0.6495,
        0.5827,
        0.5817,
        0.57,
        0.5542
      ],
      "fact_recall": 1.0,
      "fact_hits": [
        "C66742",
        "AESER",
        "AESDTH"
      ],
      "fact_misses": [],
      "answer_preview": "## C66742 (No Yes Response) Usage in SDTM\n\nBased on the controlled terminology source, **C66742** (No Yes Response) is a non-extensible codelist with four permitted values: **N, Y, U, NA** [Source: terminology/core/general_part4.md].\n\n### Variables Referencing C66742\n\nThe knowledge base identifies t",
      "usage": {
        "prompt_tokens": 11272,
        "completion_tokens": 687,
        "total_tokens": 11959
      },
      "model": "deepseek/deepseek-chat",
      "elapsed_s": 5.72
    },
    {
      "id": "q68",
      "category": "cross_domain",
      "question": "Which domains use the Completion Status codelist (C66789) for their --STAT variable, and what does --STAT indicate?",
      "source_recall": 0.0,
      "source_hits": [],
      "source_misses": [
        "VARIABLE_INDEX.md"
      ],
      "top5_sources": [
        "domains/CM/spec.md",
        "domains/SC/spec.md",
        "domains/SS/spec.md",
        "domains/MS/spec.md",
        "domains/VS/spec.md"
      ],
      "top5_similarities": [
        0.6921,
        0.6915,
        0.685,
        0.6843,
        0.6706
      ],
      "fact_recall": 1.0,
      "fact_hits": [
        "C66789",
        "STAT",
        "Completion Status"
      ],
      "fact_misses": [],
      "answer_preview": "## Domains Using the --STAT Variable with C66789\n\nBased on the retrieved context, the **--STAT** (Completion Status) variable using codelist **C66789** appears in at least **15 domains**, all with Role **Record Qualifier** and Core **Perm**. Below is the complete listing:\n\n| Domain | Variable | Labe",
      "usage": {
        "prompt_tokens": 9256,
        "completion_tokens": 1620,
        "total_tokens": 10876
      },
      "model": "deepseek/deepseek-chat",
      "elapsed_s": 10.65
    },
    {
      "id": "q69",
      "category": "cross_domain",
      "question": "The dose units codelist C71620 is shared across many Intervention and Findings domains. Which variables such as EXDOSU and CMDOSU reference it?",
      "source_recall": 0.0,
      "source_hits": [],
      "source_misses": [
        "VARIABLE_INDEX.md"
      ],
      "top5_sources": [
        "domains/CM/spec.md",
        "domains/EC/spec.md",
        "domains/EX/spec.md",
        "domains/CM/spec.md",
        "domains/ML/spec.md"
      ],
      "top5_similarities": [
        0.7093,
        0.6937,
        0.6827,
        0.6777,
        0.6604
      ],
      "fact_recall": 1.0,
      "fact_hits": [
        "C71620",
        "EXDOSU",
        "CMDOSU"
      ],
      "fact_misses": [],
      "answer_preview": "Based on the retrieved context, the following variables reference the dose units codelist C71620 across Intervention domains:\n\n1. **CMDOSU** (Concomitant/Prior Medications) — Dose Units, Variable Qualifier, Core: Perm\n   - Units for CMDOSE, CMDOSTOT, or CMDOSTXT. [Source: domains/CM/spec.md — CMDOSU",
      "usage": {
        "prompt_tokens": 9604,
        "completion_tokens": 497,
        "total_tokens": 10101
      },
      "model": "deepseek/deepseek-chat",
      "elapsed_s": 3.76
    },
    {
      "id": "q70",
      "category": "cross_domain",
      "question": "How is the RELSUB (Related Subjects) dataset used to represent relationships between two subjects, and what does the RSUBJID variable hold?",
      "source_recall": 1.0,
      "source_hits": [
        "domains/RELSUB/spec.md"
      ],
      "source_misses": [],
      "top5_sources": [
        "chapters/ch08_relationships.md",
        "domains/RELSUB/assumptions.md",
        "domains/RELSUB/assumptions.md",
        "domains/RELSUB/spec.md",
        "model/06_relationship_datasets.md"
      ],
      "top5_similarities": [
        0.7848,
        0.7736,
        0.7476,
        0.7436,
        0.7336
      ],
      "fact_recall": 1.0,
      "fact_hits": [
        "RSUBJID",
        "USUBJID",
        "SREL"
      ],
      "fact_misses": [],
      "answer_preview": "Based on the SDTMIG v3.4 knowledge base, the RELSUB (Related Subjects) dataset is used to represent relationships between study subjects, and the RSUBJID variable identifies the related subject.\n\n### How RELSUB Represents Relationships Between Two Subjects\n\n1.  **Bidirectional Representation:** Ever",
      "usage": {
        "prompt_tokens": 12217,
        "completion_tokens": 804,
        "total_tokens": 13021
      },
      "model": "deepseek/deepseek-chat",
      "elapsed_s": 5.94
    },
    {
      "id": "q71",
      "category": "cross_domain",
      "question": "What is the EVAL (Evaluator) codelist C78735 and which domains' --EVAL variables share it?",
      "source_recall": 0.0,
      "source_hits": [],
      "source_misses": [
        "VARIABLE_INDEX.md"
      ],
      "top5_sources": [
        "domains/CO/spec.md",
        "domains/CO/spec.md",
        "domains/CO/spec.md",
        "domains/EG/spec.md",
        "domains/CV/spec.md"
      ],
      "top5_similarities": [
        0.6168,
        0.6115,
        0.6093,
        0.6042,
        0.5899
      ],
      "fact_recall": 1.0,
      "fact_hits": [
        "C78735",
        "EVAL",
        "PE"
      ],
      "fact_misses": [],
      "answer_preview": "Based on the provided context, the **Evaluator (C78735)** codelist defines roles for persons who provide subjective evaluations. It is shared across the following domains' `--EVAL` variables:\n\n| Domain | Variable | Role | Core | Source |\n|--------|----------|------|------|--------|\n| CO (Comments) |",
      "usage": {
        "prompt_tokens": 9505,
        "completion_tokens": 519,
        "total_tokens": 10024
      },
      "model": "deepseek/deepseek-chat",
      "elapsed_s": 4.13
    },
    {
      "id": "q72",
      "category": "cross_domain",
      "question": "How do the PC (Pharmacokinetics Concentrations) and PP (Pharmacokinetic Parameters) domains relate to each other, and why are they kept as two separate domains?",
      "source_recall": 1.0,
      "source_hits": [
        "chapters/ch08_relationships.md"
      ],
      "source_misses": [],
      "top5_sources": [
        "domains/PC/assumptions.md",
        "domains/PC/assumptions.md",
        "domains/PP/assumptions.md",
        "domains/PC/examples.md",
        "domains/PP/examples.md"
      ],
      "top5_similarities": [
        0.733,
        0.6403,
        0.6135,
        0.5971,
        0.5769
      ],
      "fact_recall": 1.0,
      "fact_hits": [
        "PC",
        "PP",
        "parameter"
      ],
      "fact_misses": [],
      "answer_preview": "## PC and PP Domain Relationship\n\n### Why Two Separate Domains\n\nPC and PP are kept as two separate domains because they represent **different topics** with **different data structures**, as described in SDTMIG v3.4:\n\n- **PC (Pharmacokinetics Concentrations)**: The topic is plasma (or other specimen)",
      "usage": {
        "prompt_tokens": 16937,
        "completion_tokens": 678,
        "total_tokens": 17615
      },
      "model": "deepseek/deepseek-chat",
      "elapsed_s": 6.36
    },
    {
      "id": "q73",
      "category": "cross_domain",
      "question": "Which special-purpose and relationship domains carry the RDOMAIN variable, and what does RDOMAIN identify?",
      "source_recall": 0.0,
      "source_hits": [],
      "source_misses": [
        "model/06_relationship_datasets.md"
      ],
      "top5_sources": [
        "domains/RELREC/spec.md",
        "domains/SUPPQUAL/spec.md",
        "domains/CO/spec.md",
        "domains/RELREC/spec.md",
        "domains/SUPPQUAL/spec.md"
      ],
      "top5_similarities": [
        0.7528,
        0.7491,
        0.7256,
        0.6891,
        0.6271
      ],
      "fact_recall": 0.6667,
      "fact_hits": [
        "RDOMAIN",
        "parent"
      ],
      "fact_misses": [
        "2-character"
      ],
      "answer_preview": "Based on the retrieved context, the **RDOMAIN** variable appears in the following special-purpose and relationship domains:\n\n1. **RELREC** (Related Records) — Role: Identifier, Core: Req\n2. **SUPPQUAL** (Supplemental Qualifiers) — Role: Identifier, Core: Req\n3. **CO** (Comments) — Role: Record Quali",
      "usage": {
        "prompt_tokens": 8942,
        "completion_tokens": 314,
        "total_tokens": 9256
      },
      "model": "deepseek/deepseek-chat",
      "elapsed_s": 2.85
    },
    {
      "id": "q74",
      "category": "cross_domain",
      "question": "How are Supplemental Qualifier datasets named per parent domain (for example for AE and CM), and what variable ties each SUPP-- record back to its parent domain?",
      "source_recall": 1.0,
      "source_hits": [
        "model/06_relationship_datasets.md"
      ],
      "source_misses": [],
      "top5_sources": [
        "model/06_relationship_datasets.md",
        "chapters/ch08_relationships.md",
        "chapters/ch08_relationships.md",
        "domains/SUPPQUAL/assumptions.md",
        "chapters/ch08_relationships.md"
      ],
      "top5_similarities": [
        0.8137,
        0.7655,
        0.7453,
        0.7436,
        0.7413
      ],
      "fact_recall": 1.0,
      "fact_hits": [
        "suppae",
        "RDOMAIN",
        "supp--"
      ],
      "fact_misses": [],
      "answer_preview": "## Supplemental Qualifier Dataset Naming\n\nSupplemental Qualifier datasets follow the naming convention **SUPP--**, where \"--\" is replaced by the 2-character domain abbreviation of the parent domain. Examples:\n\n- **suppae.xpt** — Supplemental Qualifiers for Adverse Events (AE) **[Source: chapters/ch0",
      "usage": {
        "prompt_tokens": 16815,
        "completion_tokens": 657,
        "total_tokens": 17472
      },
      "model": "deepseek/deepseek-chat",
      "elapsed_s": 6.13
    },
    {
      "id": "q75",
      "category": "cross_domain",
      "question": "In SDTM, which identifier variables besides USUBJID can identify the source of a record across the general observation classes (for example for pooled or device data)?",
      "source_recall": 1.0,
      "source_hits": [
        "model/02_observation_classes.md"
      ],
      "source_misses": [],
      "top5_sources": [
        "domains/SUPPQUAL/spec.md",
        "domains/RELSUB/spec.md",
        "model/02_observation_classes.md",
        "domains/PP/spec.md",
        "domains/DM/assumptions.md"
      ],
      "top5_similarities": [
        0.6786,
        0.6767,
        0.6708,
        0.6661,
        0.6651
      ],
      "fact_recall": 1.0,
      "fact_hits": [
        "USUBJID",
        "POOLID",
        "SPDEVID"
      ],
      "fact_misses": [],
      "answer_preview": "Based on the context, the identifier variables (besides USUBJID) that can identify the source of a record across the general observation classes are:\n\n1. **POOLID (Pool Identifier)** — Used for results that are not assignable to a specific subject [Source: model/02_observation_classes.md §3.1.4].\n2.",
      "usage": {
        "prompt_tokens": 9753,
        "completion_tokens": 255,
        "total_tokens": 10008
      },
      "model": "deepseek/deepseek-chat",
      "elapsed_s": 2.79
    },
    {
      "id": "q76",
      "category": "cross_domain",
      "question": "How do the AP (Associated Persons) domains link non-subject persons back to study subjects, and what role do RSUBJID and SREL play?",
      "source_recall": 1.0,
      "source_hits": [
        "model/04_associated_persons.md"
      ],
      "source_misses": [],
      "top5_sources": [
        "model/06_relationship_datasets.md",
        "domains/RELSUB/assumptions.md",
        "domains/RELSUB/assumptions.md",
        "model/04_associated_persons.md",
        "chapters/ch08_relationships.md"
      ],
      "top5_similarities": [
        0.7014,
        0.6962,
        0.6754,
        0.6695,
        0.6671
      ],
      "fact_recall": 1.0,
      "fact_hits": [
        "APID",
        "RSUBJID",
        "SREL"
      ],
      "fact_misses": [],
      "answer_preview": "## AP Domains: Linking Non-Subject Persons to Study Subjects\n\nAP (Associated Persons) domains link non-subject persons back to study subjects through three key linking variables, with **APRELSUB** as the dedicated relationship dataset.\n\n### Core Linking Mechanism\n\nThe AP domain model replaces the su",
      "usage": {
        "prompt_tokens": 11854,
        "completion_tokens": 809,
        "total_tokens": 12663
      },
      "model": "deepseek/deepseek-chat",
      "elapsed_s": 6.31
    },
    {
      "id": "q77",
      "category": "cross_domain",
      "question": "The EPOCH timing variable appears in many domains. List several domains where EPOCH is used and state what kind of variable it is.",
      "source_recall": 0.0,
      "source_hits": [],
      "source_misses": [
        "VARIABLE_INDEX.md"
      ],
      "top5_sources": [
        "domains/TA/assumptions.md",
        "domains/SR/spec.md",
        "domains/UR/spec.md",
        "domains/LB/spec.md",
        "domains/PP/spec.md"
      ],
      "top5_similarities": [
        0.7118,
        0.6753,
        0.6749,
        0.672,
        0.6715
      ],
      "fact_recall": 1.0,
      "fact_hits": [
        "EPOCH",
        "Timing",
        "AE",
        "EX"
      ],
      "fact_misses": [],
      "answer_preview": "Based on the provided context, the EPOCH variable is a **Timing Role** variable (type **Char**) with **Perm** (Permissible) core and controlled by terminology codelist **C99079**. It appears in many SDTM domains.\n\nHere are several domains where EPOCH is used:\n\n- **AE (Adverse Events):** Epoch associ",
      "usage": {
        "prompt_tokens": 9157,
        "completion_tokens": 659,
        "total_tokens": 9816
      },
      "model": "deepseek/deepseek-chat",
      "elapsed_s": 4.71
    },
    {
      "id": "q78",
      "category": "concept",
      "question": "What are the rules for values of --TESTCD variables in SDTM? Describe the maximum length and which characters are allowed.",
      "source_recall": 1.0,
      "source_hits": [
        "chapters/ch04_general_assumptions.md"
      ],
      "source_misses": [],
      "top5_sources": [
        "chapters/ch04_general_assumptions.md",
        "chapters/ch04_general_assumptions.md",
        "domains/SR/spec.md",
        "domains/CV/spec.md",
        "domains/DD/spec.md"
      ],
      "top5_similarities": [
        0.6937,
        0.6892,
        0.6542,
        0.6537,
        0.6487
      ],
      "fact_recall": 0.6667,
      "fact_hits": [
        "8 characters",
        "cannot start with a number"
      ],
      "fact_misses": [
        "letters, numbers, or underscores"
      ],
      "answer_preview": "Based on the SDTMIG v3.4 knowledge base, the rules for values of **--TESTCD** variables (e.g., VSTESTCD, LBTESTCD, QSTESTCD) are as follows:\n\n- **Maximum Length:** 8 characters.\n- **Allowed Characters:** Only letters, numbers, and underscores.\n- **Additional Restrictions:**\n  - The value **cannot st",
      "usage": {
        "prompt_tokens": 10895,
        "completion_tokens": 356,
        "total_tokens": 11251
      },
      "model": "deepseek/deepseek-chat",
      "elapsed_s": 3.45
    },
    {
      "id": "q79",
      "category": "concept",
      "question": "How does SDTM represent a missing value, and what should be done when a test is not performed?",
      "source_recall": 1.0,
      "source_hits": [
        "chapters/ch04_general_assumptions.md"
      ],
      "source_misses": [],
      "top5_sources": [
        "chapters/ch04_general_assumptions.md",
        "terminology/core/other_part4.md",
        "terminology/supplementary/supplementary_part5.md",
        "domains/DD/spec.md",
        "terminology/core/other_part4.md"
      ],
      "top5_similarities": [
        0.6134,
        0.5714,
        0.5688,
        0.5633,
        0.5587
      ],
      "fact_recall": 1.0,
      "fact_hits": [
        "null",
        "NOT DONE",
        "STAT",
        "REASND"
      ],
      "fact_misses": [],
      "answer_preview": "Based on the provided context, SDTM has specific rules for representing missing values and handling cases where a test is not performed.\n\n### Missing Value Representation\n\nMissing values in SDTM are represented as **null** (empty). **[Source: chapters/ch04_general_assumptions.md — 4.2.5 Convention f",
      "usage": {
        "prompt_tokens": 11272,
        "completion_tokens": 353,
        "total_tokens": 11625
      },
      "model": "deepseek/deepseek-chat",
      "elapsed_s": 3.78
    },
    {
      "id": "q80",
      "category": "concept",
      "question": "What is the convention for using 'Yes' and 'No' values in SDTM variables, and when is it acceptable to populate only one value?",
      "source_recall": 1.0,
      "source_hits": [
        "chapters/ch04_general_assumptions.md"
      ],
      "source_misses": [],
      "top5_sources": [
        "chapters/ch04_general_assumptions.md",
        "terminology/core/general_part4.md",
        "terminology/supplementary/supplementary_part5.md",
        "chapters/ch04_general_assumptions.md",
        "chapters/ch04_general_assumptions.md"
      ],
      "top5_similarities": [
        0.6584,
        0.6048,
        0.5932,
        0.5452,
        0.5395
      ],
      "fact_recall": 1.0,
      "fact_hits": [
        "Yes",
        "No",
        "single checkbox"
      ],
      "fact_misses": [],
      "answer_preview": "Based on the retrieved context, here is the convention for using \"Yes\" and \"No\" values in SDTM variables:\n\n## General Rule\n\nVariables where the response is \"Yes\" or \"No\" (submitted as \"Y\" or \"N\") should normally be populated for **both** \"Y\" and \"N\" responses. This eliminates confusion regarding whe",
      "usage": {
        "prompt_tokens": 13678,
        "completion_tokens": 600,
        "total_tokens": 14278
      },
      "model": "deepseek/deepseek-chat",
      "elapsed_s": 4.7
    },
    {
      "id": "q81",
      "category": "concept",
      "question": "What rules govern the two-character DOMAIN code in SDTM? What characters are allowed for the first and second characters?",
      "source_recall": 1.0,
      "source_hits": [
        "chapters/ch04_general_assumptions.md"
      ],
      "source_misses": [],
      "top5_sources": [
        "chapters/ch04_general_assumptions.md",
        "domains/TM/spec.md",
        "domains/DA/spec.md",
        "domains/DD/spec.md",
        "domains/EX/spec.md"
      ],
      "top5_similarities": [
        0.7133,
        0.6587,
        0.644,
        0.644,
        0.644
      ],
      "fact_recall": 1.0,
      "fact_hits": [
        "2-character",
        "A-Z",
        "0-9"
      ],
      "fact_misses": [],
      "answer_preview": "Based on the retrieved context, the rules for the two-character DOMAIN code in SDTM are as follows:\n\n## Character Rules\n- **First character:** Limited to A-Z (letters only)\n- **Second character:** Limited to A-Z or 0-9 (letters or digits)\n\nNo other characters are permitted. This restriction is for c",
      "usage": {
        "prompt_tokens": 9246,
        "completion_tokens": 548,
        "total_tokens": 9794
      },
      "model": "deepseek/deepseek-chat",
      "elapsed_s": 4.44
    },
    {
      "id": "q82",
      "category": "concept",
      "question": "Which identifier variables are required in all domains based on the three general observation classes, and which subject-level identifier must each include?",
      "source_recall": 1.0,
      "source_hits": [
        "model/02_observation_classes.md"
      ],
      "source_misses": [],
      "top5_sources": [
        "model/02_observation_classes.md",
        "chapters/ch04_general_assumptions.md",
        "model/02_observation_classes.md",
        "domains/DS/assumptions.md",
        "domains/ML/assumptions.md"
      ],
      "top5_similarities": [
        0.7071,
        0.6441,
        0.6224,
        0.6152,
        0.6135
      ],
      "fact_recall": 1.0,
      "fact_hits": [
        "STUDYID",
        "DOMAIN",
        "SEQ",
        "USUBJID"
      ],
      "fact_misses": [],
      "answer_preview": "Based on the SDTMIG v3.4 knowledge base, the following identifier variables are required in all domains based on the three general observation classes (Interventions, Events, and Findings):\n\n**Required Identifiers for All Classes:**\n- **STUDYID** (Study Identifier) — Char, Identifier\n- **DOMAIN** (D",
      "usage": {
        "prompt_tokens": 10047,
        "completion_tokens": 435,
        "total_tokens": 10482
      },
      "model": "deepseek/deepseek-chat",
      "elapsed_s": 3.65
    },
    {
      "id": "q83",
      "category": "concept",
      "question": "What is RELREC and how is it used to relate records or datasets to one another in SDTM? What does the RDOMAIN variable do in RELREC?",
      "source_recall": 1.0,
      "source_hits": [
        "model/06_relationship_datasets.md"
      ],
      "source_misses": [],
      "top5_sources": [
        "chapters/ch08_relationships.md",
        "domains/RELREC/assumptions.md",
        "chapters/ch08_relationships.md",
        "domains/TR/assumptions.md",
        "model/06_relationship_datasets.md"
      ],
      "top5_similarities": [
        0.7786,
        0.7576,
        0.7543,
        0.7004,
        0.6968
      ],
      "fact_recall": 1.0,
      "fact_hits": [
        "RELREC",
        "RDOMAIN",
        "Identifier"
      ],
      "fact_misses": [],
      "answer_preview": "## RELREC — Related Records Dataset\n\n**RELREC** is a special-purpose relationship dataset used to describe relationships between records for a subject **within or across domains**, and relationships **between entire datasets**. It is defined in both the SDTM v2.0 model and SDTMIG v3.4 Implementation",
      "usage": {
        "prompt_tokens": 13858,
        "completion_tokens": 1379,
        "total_tokens": 15237
      },
      "model": "deepseek/deepseek-chat",
      "elapsed_s": 10.3
    },
    {
      "id": "q84",
      "category": "concept",
      "question": "When deciding whether data belong to the Events, Interventions, or Findings observation class, what is the definition of an intervention versus an event?",
      "source_recall": 1.0,
      "source_hits": [
        "chapters/ch08_relationships.md"
      ],
      "source_misses": [],
      "top5_sources": [
        "chapters/ch08_relationships.md",
        "domains/AG/spec.md",
        "domains/CM/spec.md",
        "domains/EC/spec.md",
        "domains/EX/spec.md"
      ],
      "top5_similarities": [
        0.6892,
        0.6352,
        0.6352,
        0.6352,
        0.6352
      ],
      "fact_recall": 1.0,
      "fact_hits": [
        "intervention",
        "event",
        "physiological effect"
      ],
      "fact_misses": [],
      "answer_preview": "## Intervention vs. Event: Definitions for Observation Class Classification\n\n### Intervention Definition\n\nAn **intervention** is something that is **done to a subject** (possibly by the subject themselves) that is **expected to have a physiological effect**. This concept of \"intended effect\" makes i",
      "usage": {
        "prompt_tokens": 11602,
        "completion_tokens": 944,
        "total_tokens": 12546
      },
      "model": "deepseek/deepseek-chat",
      "elapsed_s": 8.62
    },
    {
      "id": "q85",
      "category": "concept",
      "question": "What are Associated Persons in SDTM, and how are AP domains named relative to the standard domain codes?",
      "source_recall": 1.0,
      "source_hits": [
        "model/04_associated_persons.md"
      ],
      "source_misses": [],
      "top5_sources": [
        "model/04_associated_persons.md",
        "domains/RELREC/spec.md",
        "chapters/ch04_general_assumptions.md",
        "model/01_concepts_and_terms.md",
        "chapters/ch04_general_assumptions.md"
      ],
      "top5_similarities": [
        0.7784,
        0.5764,
        0.5731,
        0.5676,
        0.5562
      ],
      "fact_recall": 1.0,
      "fact_hits": [
        "Associated Persons",
        "AP",
        "APDM"
      ],
      "fact_misses": [],
      "answer_preview": "Based on the retrieved context, here is the explanation of Associated Persons in SDTM and how AP domains are named:\n\n### Associated Persons Definition\n\nAssociated Persons are individuals other than study subjects who can be associated with a study, a particular study subject, or a device used in the",
      "usage": {
        "prompt_tokens": 13903,
        "completion_tokens": 404,
        "total_tokens": 14307
      },
      "model": "deepseek/deepseek-chat",
      "elapsed_s": 3.98
    },
    {
      "id": "q86",
      "category": "concept",
      "question": "What is an Expected (Exp) Core variable in SDTM, and what must be done in the Define-XML when a study does not collect the data item for an Expected variable?",
      "source_recall": 1.0,
      "source_hits": [
        "chapters/ch04_general_assumptions.md"
      ],
      "source_misses": [],
      "top5_sources": [
        "chapters/ch04_general_assumptions.md",
        "chapters/ch04_general_assumptions.md",
        "model/01_concepts_and_terms.md",
        "domains/EX/assumptions.md",
        "chapters/ch03_submitting_data.md"
      ],
      "top5_similarities": [
        0.7307,
        0.5805,
        0.5625,
        0.5479,
        0.5376
      ],
      "fact_recall": 1.0,
      "fact_hits": [
        "Expected",
        "null",
        "Define-XML"
      ],
      "fact_misses": [],
      "answer_preview": "## Expected (Exp) Core Variable in SDTM\n\nAn **Expected** variable is any variable necessary to make a record useful in the context of a specific domain. Expected variables may contain some null values, but in most cases will not contain null values for every record.\n\n### Core Requirements\n\n| Core Va",
      "usage": {
        "prompt_tokens": 13658,
        "completion_tokens": 293,
        "total_tokens": 13951
      },
      "model": "deepseek/deepseek-chat",
      "elapsed_s": 3.02
    },
    {
      "id": "q87",
      "category": "concept",
      "question": "How does SDTM decide whether assessments of an event should be stored as Supplemental Qualifiers versus in the Findings About (FA) domain?",
      "source_recall": 1.0,
      "source_hits": [
        "chapters/ch08_relationships.md"
      ],
      "source_misses": [],
      "top5_sources": [
        "domains/FA/assumptions.md",
        "chapters/ch02_fundamentals.md",
        "domains/FA/assumptions.md",
        "chapters/ch08_relationships.md",
        "domains/SUPPQUAL/assumptions.md"
      ],
      "top5_similarities": [
        0.7222,
        0.6963,
        0.6923,
        0.6814,
        0.6604
      ],
      "fact_recall": 1.0,
      "fact_hits": [
        "Findings About",
        "supplemental qualifier",
        "event"
      ],
      "fact_misses": [],
      "answer_preview": "## Distinction Between Supplemental Qualifiers (SUPP--) and Findings About (FA) for Event Assessments\n\nThe SDTMIG provides clear criteria for deciding whether an assessment of an event should be stored as a **Supplemental Qualifier** (via SUPP--) or in the **Findings About (FA) domain**. The decisio",
      "usage": {
        "prompt_tokens": 17362,
        "completion_tokens": 1555,
        "total_tokens": 18917
      },
      "model": "deepseek/deepseek-chat",
      "elapsed_s": 12.98
    },
    {
      "id": "q88",
      "category": "concept",
      "question": "What distinguishes ETCD, TSPARMCD, and ARMCD from --TESTCD with respect to character restrictions and maximum lengths in SDTM?",
      "source_recall": 1.0,
      "source_hits": [
        "chapters/ch04_general_assumptions.md"
      ],
      "source_misses": [],
      "top5_sources": [
        "domains/TS/spec.md",
        "domains/DM/spec.md",
        "domains/TA/spec.md",
        "domains/TS/assumptions.md",
        "domains/TV/spec.md"
      ],
      "top5_similarities": [
        0.6624,
        0.6434,
        0.6254,
        0.624,
        0.623
      ],
      "fact_recall": 1.0,
      "fact_hits": [
        "ETCD",
        "TSPARMCD",
        "ARMCD",
        "20 characters"
      ],
      "fact_misses": [],
      "answer_preview": "Based on the SDTM knowledge base, the key distinction between **ETCD**, **TSPARMCD**, **ARMCD**, and **--TESTCD** lies in how they are treated regarding **character restrictions** (allowed characters) and **maximum lengths**.\n\nHere is the specific breakdown:\n\n1.  **--TESTCD (Findings Short Name)**\n ",
      "usage": {
        "prompt_tokens": 10791,
        "completion_tokens": 680,
        "total_tokens": 11471
      },
      "model": "deepseek/deepseek-chat",
      "elapsed_s": 5.71
    },
    {
      "id": "q89",
      "category": "concept",
      "question": "What are the timing variables grouped under Relative Timing in SDTM (such as --STRF, --ENRF, --STRTPT, --ENRTPT) and what kinds of values do they take?",
      "source_recall": 1.0,
      "source_hits": [
        "model/02_observation_classes.md",
        "chapters/ch04_general_assumptions.md"
      ],
      "source_misses": [],
      "top5_sources": [
        "chapters/ch04_general_assumptions.md",
        "domains/CE/assumptions.md",
        "domains/MH/assumptions.md",
        "domains/AE/assumptions.md",
        "model/02_observation_classes.md"
      ],
      "top5_similarities": [
        0.713,
        0.6762,
        0.6605,
        0.6541,
        0.638
      ],
      "fact_recall": 1.0,
      "fact_hits": [
        "STRF",
        "ENRF",
        "STRTPT",
        "BEFORE"
      ],
      "fact_misses": [],
      "answer_preview": "Based on the SDTM knowledge base, the timing variables grouped under \"Relative Timing\" provide a way to describe when an observation's start or end occurred relative to a sponsor-defined reference period or a specific reference time point.\n\nThe following table summarizes these variables, their allow",
      "usage": {
        "prompt_tokens": 12425,
        "completion_tokens": 1108,
        "total_tokens": 13533
      },
      "model": "deepseek/deepseek-chat",
      "elapsed_s": 8.28
    },
    {
      "id": "q90",
      "category": "mixed",
      "question": "In the EX (Exposure) domain, what is the EXROUTE variable and its controlled terminology codelist code, and list some parenteral route-of-administration values from that codelist (for example routes administered under the skin or into a muscle).",
      "source_recall": 0.5,
      "source_hits": [
        "domains/EX/spec.md"
      ],
      "source_misses": [
        "terminology/core/interventions.md"
      ],
      "top5_sources": [
        "domains/EX/spec.md",
        "domains/EX/spec.md",
        "domains/EC/spec.md",
        "domains/CM/spec.md",
        "domains/EX/assumptions.md"
      ],
      "top5_similarities": [
        0.6862,
        0.631,
        0.6052,
        0.5904,
        0.5878
      ],
      "fact_recall": 1.0,
      "fact_hits": [
        "EXROUTE",
        "C66729",
        "SUBCUTANEOUS",
        "INTRAMUSCULAR"
      ],
      "fact_misses": [],
      "answer_preview": "Based on the retrieved context, here is the definition of the `EXROUTE` variable and the relevant controlled terminology.\n\n### EXROUTE Definition\n\n- **Label:** Route of Administration\n- **Type:** Char\n- **Role:** Variable Qualifier\n- **Core:** Perm\n- **CDISC Notes:** Route of administration for the ",
      "usage": {
        "prompt_tokens": 11529,
        "completion_tokens": 312,
        "total_tokens": 11841
      },
      "model": "deepseek/deepseek-chat",
      "elapsed_s": 3.65
    },
    {
      "id": "q91",
      "category": "mixed",
      "question": "In the DS (Disposition) domain, which codelist does DSDECOD use for disposition events, and what are some reason-for-non-completion values from that codelist (for example a subject-initiated withdrawal or a physician's decision)?",
      "source_recall": 1.0,
      "source_hits": [
        "domains/DS/spec.md",
        "terminology/core/disposition.md"
      ],
      "source_misses": [],
      "top5_sources": [
        "domains/DS/spec.md",
        "domains/DS/assumptions.md",
        "domains/DS/spec.md",
        "VARIABLE_INDEX.md",
        "domains/DS/assumptions.md"
      ],
      "top5_similarities": [
        0.7472,
        0.7319,
        0.6825,
        0.678,
        0.6611
      ],
      "fact_recall": 0.5,
      "fact_hits": [
        "DSDECOD",
        "C66727"
      ],
      "fact_misses": [
        "WITHDRAWAL BY SUBJECT",
        "PHYSICIAN DECISION"
      ],
      "answer_preview": "Based on the SDTMIG v3.4 knowledge base, for disposition events (when `DSCAT = \"DISPOSITION EVENT\"`), `DSDECOD` uses the extensible controlled terminology codelist **NCOMPLT** (C66727): \"Completion/Reason for Non-Completion\" **[Source: domains/DS/assumptions.md, item_3.b.ii]**.\n\nHowever, the retriev",
      "usage": {
        "prompt_tokens": 12000,
        "completion_tokens": 372,
        "total_tokens": 12372
      },
      "model": "deepseek/deepseek-chat",
      "elapsed_s": 3.82
    },
    {
      "id": "q92",
      "category": "mixed",
      "question": "What is the ETHNIC variable in the DM domain, what controlled terminology codelist code does it use, and what are its permitted values?",
      "source_recall": 1.0,
      "source_hits": [
        "domains/DM/spec.md",
        "terminology/core/dm.md"
      ],
      "source_misses": [],
      "top5_sources": [
        "domains/DM/spec.md",
        "domains/DM/assumptions.md",
        "chapters/ch04_general_assumptions.md",
        "domains/DS/spec.md",
        "domains/DM/spec.md"
      ],
      "top5_similarities": [
        0.6371,
        0.5725,
        0.5587,
        0.546,
        0.5401
      ],
      "fact_recall": 1.0,
      "fact_hits": [
        "ETHNIC",
        "C66790",
        "HISPANIC OR LATINO"
      ],
      "fact_misses": [],
      "answer_preview": "## ETHNIC Variable in DM Domain\n\n### Variable Definition\n\n**ETHNIC** in the DM (Demographics) domain is defined as follows:\n\n| Attribute | Value |\n|-----------|-------|\n| **Label** | Ethnicity |\n| **Type** | Char |\n| **Controlled Terms** | C66790 |\n| **Role** | Record Qualifier |\n| **Core** | Perm |",
      "usage": {
        "prompt_tokens": 11575,
        "completion_tokens": 513,
        "total_tokens": 12088
      },
      "model": "deepseek/deepseek-chat",
      "elapsed_s": 4.18
    },
    {
      "id": "q93",
      "category": "mixed",
      "question": "In the EX domain, what is the EXDOSFRM (Dose Form) variable and its controlled terminology codelist code, and give some dose-form values from that codelist (for example a solid oral shell form or a sterile parenteral form)?",
      "source_recall": 0.5,
      "source_hits": [
        "domains/EX/spec.md"
      ],
      "source_misses": [
        "terminology/core/interventions.md"
      ],
      "top5_sources": [
        "domains/EX/spec.md",
        "domains/EX/spec.md",
        "domains/EC/spec.md",
        "domains/EX/spec.md",
        "domains/EX/spec.md"
      ],
      "top5_similarities": [
        0.7833,
        0.7154,
        0.7138,
        0.7063,
        0.6943
      ],
      "fact_recall": 1.0,
      "fact_hits": [
        "EXDOSFRM",
        "C66726",
        "CAPSULE",
        "INJECTION"
      ],
      "fact_misses": [],
      "answer_preview": "Based on the retrieved context, here is the definition of the **EXDOSFRM** variable and its associated controlled terminology:\n\n### EXDOSFRM Definition\n\n- **Label:** Dose Form\n- **Type:** Char\n- **Controlled Terms:** C66726\n- **Role:** Variable Qualifier\n- **Core:** Exp\n- **CDISC Notes:** Dose form ",
      "usage": {
        "prompt_tokens": 9615,
        "completion_tokens": 291,
        "total_tokens": 9906
      },
      "model": "deepseek/deepseek-chat",
      "elapsed_s": 3.3
    },
    {
      "id": "q94",
      "category": "mixed",
      "question": "How does the LB domain distinguish the original result LBORRES from the standardized result LBSTRESC, what codelist does LBSTRESC reference, and what are some of the standard result values in that codelist (for example for positive/negative findings)?",
      "source_recall": 0.5,
      "source_hits": [
        "domains/LB/spec.md"
      ],
      "source_misses": [
        "terminology/core/lb_part4.md"
      ],
      "top5_sources": [
        "domains/LB/spec.md",
        "domains/LB/spec.md",
        "domains/LB/spec.md",
        "domains/LB/assumptions.md",
        "domains/LB/assumptions.md"
      ],
      "top5_similarities": [
        0.7761,
        0.682,
        0.6766,
        0.6673,
        0.6487
      ],
      "fact_recall": 1.0,
      "fact_hits": [
        "LBORRES",
        "LBSTRESC",
        "C102580",
        "NEGATIVE",
        "POSITIVE"
      ],
      "fact_misses": [],
      "answer_preview": "Based on the retrieved context, I can answer how the LB domain distinguishes original from standardized results and identify the codelist for LBSTRESC. However, note that **the actual value list for the referenced codelist is not provided in the retrieved context**.\n\n## Distinction Between LBORRES a",
      "usage": {
        "prompt_tokens": 11548,
        "completion_tokens": 618,
        "total_tokens": 12166
      },
      "model": "deepseek/deepseek-chat",
      "elapsed_s": 5.37
    },
    {
      "id": "q95",
      "category": "mixed",
      "question": "In the DD (Death Details) domain, what is the DDTEST variable and its controlled terminology codelist code, and what are some of the test names defined in that codelist (for example relating to cause of death or age at death)?",
      "source_recall": 1.0,
      "source_hits": [
        "domains/DD/spec.md",
        "terminology/core/other_part4.md"
      ],
      "source_misses": [],
      "top5_sources": [
        "domains/DD/spec.md",
        "domains/DD/spec.md",
        "domains/DD/assumptions.md",
        "domains/DD/spec.md",
        "terminology/core/other_part4.md"
      ],
      "top5_similarities": [
        0.7643,
        0.7509,
        0.7105,
        0.6851,
        0.6729
      ],
      "fact_recall": 1.0,
      "fact_hits": [
        "DDTEST",
        "C116107",
        "Primary Cause of Death",
        "Age at Death"
      ],
      "fact_misses": [],
      "answer_preview": "Based on the retrieved context, here is the definition of the **DDTEST** variable and its associated controlled terminology.\n\n### DDTEST Variable Definition\n\n- **Label:** Death Detail Assessment Name\n- **Type:** Char\n- **Role:** Synonym Qualifier\n- **Core:** Req\n- **Controlled Terms:** **C116107**\n-",
      "usage": {
        "prompt_tokens": 11250,
        "completion_tokens": 441,
        "total_tokens": 11691
      },
      "model": "deepseek/deepseek-chat",
      "elapsed_s": 3.73
    },
    {
      "id": "q96",
      "category": "mixed",
      "question": "In the FA (Findings About) domain, what is the FATEST variable and its controlled terminology codelist code, and give some example test names from that codelist (such as Diameter or Cumulative Exposure)?",
      "source_recall": 0.5,
      "source_hits": [
        "domains/FA/spec.md"
      ],
      "source_misses": [
        "terminology/core/findings_about.md"
      ],
      "top5_sources": [
        "domains/FA/spec.md",
        "domains/FA/assumptions.md",
        "domains/FA/spec.md",
        "domains/FA/spec.md",
        "VARIABLE_INDEX.md"
      ],
      "top5_similarities": [
        0.7232,
        0.7102,
        0.7015,
        0.6545,
        0.6469
      ],
      "fact_recall": 1.0,
      "fact_hits": [
        "FATEST",
        "C101833",
        "Diameter",
        "Cumulative Exposure"
      ],
      "fact_misses": [],
      "answer_preview": "Based on the provided context, here is the definition and details for the `FATEST` variable in the FA domain:\n\n## FATEST Variable Definition\n\n| Attribute | Value |\n|-----------|-------|\n| **Label** | Findings About Test Name |\n| **Type** | Char |\n| **Role** | Synonym Qualifier |\n| **Core** | Require",
      "usage": {
        "prompt_tokens": 12654,
        "completion_tokens": 512,
        "total_tokens": 13166
      },
      "model": "deepseek/deepseek-chat",
      "elapsed_s": 4.2
    },
    {
      "id": "q97",
      "category": "mixed",
      "question": "In the SS (Subject Status) domain, what is the SSSTRESC variable, what controlled terminology codelist does it use, and what are the standard subject-status result values in that codelist (such as for a living versus deceased subject)?",
      "source_recall": 0.5,
      "source_hits": [
        "domains/SS/spec.md"
      ],
      "source_misses": [
        "terminology/core/other_part5.md"
      ],
      "top5_sources": [
        "domains/SS/spec.md",
        "VARIABLE_INDEX.md",
        "domains/SS/spec.md",
        "domains/SS/spec.md",
        "domains/QS/spec.md"
      ],
      "top5_similarities": [
        0.7309,
        0.6764,
        0.6476,
        0.6303,
        0.6248
      ],
      "fact_recall": 1.0,
      "fact_hits": [
        "SSSTRESC",
        "C124304",
        "ALIVE",
        "DEAD"
      ],
      "fact_misses": [],
      "answer_preview": "Based on the SDTM knowledge base, here is the information for the SS domain's `SSSTRESC` variable:\n\n**SSSTRESC** (Character Result/Finding in Std Format)\n- **Label:** Character Result/Finding in Std Format\n- **Type:** Char\n- **Role:** Result Qualifier\n- **Core:** Exp (Expected)\n- **Controlled Terms:",
      "usage": {
        "prompt_tokens": 10322,
        "completion_tokens": 297,
        "total_tokens": 10619
      },
      "model": "deepseek/deepseek-chat",
      "elapsed_s": 3.16
    },
    {
      "id": "q98",
      "category": "mixed",
      "question": "In the CM (Concomitant Medications) domain, what is the CMDOSU (Dose Units) variable, what controlled terminology codelist does it use, and give some unit values from that codelist (for example an international unit or a milliequivalent)?",
      "source_recall": 0.5,
      "source_hits": [
        "domains/CM/spec.md"
      ],
      "source_misses": [
        "terminology/core/general_part5.md"
      ],
      "top5_sources": [
        "domains/CM/spec.md",
        "domains/CM/spec.md",
        "domains/CM/spec.md",
        "domains/CM/spec.md",
        "domains/CM/spec.md"
      ],
      "top5_similarities": [
        0.7977,
        0.7219,
        0.7096,
        0.7088,
        0.7005
      ],
      "fact_recall": 1.0,
      "fact_hits": [
        "CMDOSU",
        "C71620",
        "IU",
        "mEq"
      ],
      "fact_misses": [],
      "answer_preview": "Based on the SDTM knowledge base, here is the specification for the `CMDOSU` variable in the Concomitant Medications (CM) domain:\n\n### Variable: CMDOSU\n- **Label:** Dose Units\n- **Type:** Char\n- **Role:** Variable Qualifier\n- **Core:** Perm\n- **Controlled Terms (Codelist Code):** C71620 **[Source: d",
      "usage": {
        "prompt_tokens": 9928,
        "completion_tokens": 307,
        "total_tokens": 10235
      },
      "model": "deepseek/deepseek-chat",
      "elapsed_s": 3.09
    },
    {
      "id": "q99",
      "category": "mixed",
      "question": "In the QS (Questionnaires) domain, what is the QSCAT variable used for, what controlled terminology codelist does it reference, and give some example questionnaire short names from that codelist.",
      "source_recall": 0.5,
      "source_hits": [
        "domains/QS/spec.md"
      ],
      "source_misses": [
        "terminology/core/qs_part1.md"
      ],
      "top5_sources": [
        "domains/QS/spec.md",
        "domains/QS/spec.md",
        "domains/QS/spec.md",
        "domains/FT/assumptions.md",
        "domains/QS/assumptions.md"
      ],
      "top5_similarities": [
        0.785,
        0.7556,
        0.7326,
        0.7186,
        0.7186
      ],
      "fact_recall": 0.5,
      "fact_hits": [
        "QSCAT",
        "C100129"
      ],
      "fact_misses": [
        "ACQ",
        "ACT"
      ],
      "answer_preview": "Based on the SDTMIG v3.4 knowledge base:\n\n**QSCAT (Category of Question)** is used to specify the questionnaire instrument in which the question identified by `QSTESTCD` and `QSTEST` was included. It serves as a Grouping Qualifier (Role: Grouping Qualifier) with a Core of **Req** (Required) [Source:",
      "usage": {
        "prompt_tokens": 11626,
        "completion_tokens": 237,
        "total_tokens": 11863
      },
      "model": "deepseek/deepseek-chat",
      "elapsed_s": 3.28
    },
    {
      "id": "q100",
      "category": "single_domain",
      "question": "In the TA (Trial Arms) domain, what is the ARMCD variable's role and Core designation, and what is the ETCD variable used for?",
      "source_recall": 1.0,
      "source_hits": [
        "domains/TA/spec.md"
      ],
      "source_misses": [],
      "top5_sources": [
        "domains/DM/spec.md",
        "domains/DM/spec.md",
        "domains/TV/spec.md",
        "domains/DM/assumptions.md",
        "domains/TA/spec.md"
      ],
      "top5_similarities": [
        0.6861,
        0.6765,
        0.6764,
        0.6754,
        0.6516
      ],
      "fact_recall": 0.75,
      "fact_hits": [
        "ARMCD",
        "Topic",
        "ETCD"
      ],
      "fact_misses": [
        "Element Code"
      ],
      "answer_preview": "Based on the provided context, here are the details for the ARMCD variable in the TA domain:\n\n### ARMCD (Planned Arm Code)\n\n- **Label:** Planned Arm Code\n- **Type:** Char\n- **Role:** Topic\n- **Core:** Required (Req)\n- **Controlled Terms:** None specified\n- **CDISC Notes:** ARMCD is limited to 20 cha",
      "usage": {
        "prompt_tokens": 12245,
        "completion_tokens": 196,
        "total_tokens": 12441
      },
      "model": "deepseek/deepseek-chat",
      "elapsed_s": 2.09
    },
    {
      "id": "q101",
      "category": "mixed",
      "question": "What is the TSPARM variable in the TS domain, what is its controlled terminology codelist code, and give some example trial summary parameter names defined in that codelist.",
      "source_recall": 0.5,
      "source_hits": [
        "domains/TS/spec.md"
      ],
      "source_misses": [
        "terminology/core/trial_design.md"
      ],
      "top5_sources": [
        "domains/TS/spec.md",
        "domains/TS/spec.md",
        "domains/TS/spec.md",
        "domains/TS/assumptions.md",
        "domains/TS/assumptions.md"
      ],
      "top5_similarities": [
        0.7454,
        0.7399,
        0.6961,
        0.6822,
        0.667
      ],
      "fact_recall": 0.5,
      "fact_hits": [
        "TSPARM",
        "C67152"
      ],
      "fact_misses": [
        "Actual Number of Subjects",
        "Clinical Study Sponsor"
      ],
      "answer_preview": "Based on the retrieved context, here is the definition of the **TSPARM** variable in the **TS** domain:\n\n**Variable Definition:**\n- **Label:** Trial Summary Parameter\n- **Type:** Char\n- **Role:** Synonym Qualifier\n- **Core:** Req (Required)\n- **CDISC Notes:** Term for the trial summary parameter. Th",
      "usage": {
        "prompt_tokens": 9532,
        "completion_tokens": 442,
        "total_tokens": 9974
      },
      "model": "deepseek/deepseek-chat",
      "elapsed_s": 3.62
    },
    {
      "id": "q102",
      "category": "mixed",
      "question": "In the VS (Vital Signs) domain, what is the VSPOS variable, what controlled terminology codelist does it use, and list some subject-position values from that codelist (for example a face-down position or a semi-sitting bed position)?",
      "source_recall": 1.0,
      "source_hits": [
        "domains/VS/spec.md",
        "terminology/core/interventions.md"
      ],
      "source_misses": [],
      "top5_sources": [
        "domains/VS/spec.md",
        "domains/VS/spec.md",
        "domains/CV/spec.md",
        "domains/VS/spec.md",
        "domains/VS/assumptions.md"
      ],
      "top5_similarities": [
        0.756,
        0.6601,
        0.6317,
        0.6075,
        0.6044
      ],
      "fact_recall": 1.0,
      "fact_hits": [
        "VSPOS",
        "C71148",
        "PRONE",
        "FOWLERS"
      ],
      "fact_misses": [],
      "answer_preview": "Based on the SDTMIG v3.4 knowledge base, here is the definition, controlled terminology, and example values for the VSPOS variable:\n\n### VSPOS Definition\n- **Label:** Vital Signs Position of Subject\n- **Type:** Char\n- **Role:** Record Qualifier\n- **Core:** Perm\n- **CDISC Notes:** Position of the sub",
      "usage": {
        "prompt_tokens": 10618,
        "completion_tokens": 421,
        "total_tokens": 11039
      },
      "model": "deepseek/deepseek-chat",
      "elapsed_s": 3.93
    }
  ],
  "tag": "full_off"
}