{
  "summary": {
    "n_questions": 140,
    "model": "deepseek/deepseek-chat",
    "threshold": 0.85,
    "source_recall_avg": 0.9964,
    "source_recall_by_category": {
      "concept": 1.0,
      "cross_domain": 0.99,
      "mixed": 1.0,
      "single_domain": 1.0
    },
    "fact_recall_avg": 0.8273,
    "fact_recall_by_category": {
      "concept": 0.9533,
      "cross_domain": 0.7033,
      "mixed": 0.95,
      "single_domain": 0.8268
    },
    "overall": 0.9119,
    "total_tokens": 2145136,
    "verdict": "PASS",
    "top_k": 15,
    "structured_lookup": true,
    "hybrid": {
      "fusion": "rrf",
      "alpha": null
    },
    "prompt_guardrail": true
  },
  "results": [
    {
      "id": "q01",
      "category": "single_domain",
      "question": "What is AETERM and what are its variable attributes in the AE domain?",
      "source_recall": 1.0,
      "source_hits": [
        "domains/AE/spec.md"
      ],
      "source_misses": [],
      "top5_sources": [
        "domains/AE/spec.md",
        "domains/AE/spec.md",
        "domains/AE/spec.md",
        "domains/AE/spec.md",
        "domains/AE/assumptions.md"
      ],
      "top5_similarities": [
        0.5885,
        0.5778,
        0.5484,
        0.5477,
        0.6642
      ],
      "fact_recall": 1.0,
      "fact_hits": [
        "Topic",
        "Char",
        "Req",
        "Verbatim"
      ],
      "fact_misses": [],
      "answer_preview": "Based on the retrieved context, here are the variable attributes for **AETERM** in the AE domain:\n\n- **Label:** Reported Term for the Adverse Event\n- **Type:** Char\n- **Controlled Terms:** (none)\n- **Role:** Topic\n- **Core:** Req\n- **CDISC Notes:** Verbatim name of the event.\n\n**[Source: domains/AE/spec.md — AETERM]**\n\nAdditionally, the AE domain assumptions clarify that AETERM captures the verbatim term collected for the event and is the topic variable for the AE dataset. It is a required variable and must have a value. **[Source: domains/AE/assumptions.md — item_2a]**",
      "usage": {
        "prompt_tokens": 13939,
        "completion_tokens": 147,
        "total_tokens": 14086
      },
      "model": "deepseek/deepseek-chat",
      "answer": "Based on the retrieved context, here are the variable attributes for **AETERM** in the AE domain:\n\n- **Label:** Reported Term for the Adverse Event\n- **Type:** Char\n- **Controlled Terms:** (none)\n- **Role:** Topic\n- **Core:** Req\n- **CDISC Notes:** Verbatim name of the event.\n\n**[Source: domains/AE/spec.md — AETERM]**\n\nAdditionally, the AE domain assumptions clarify that AETERM captures the verbatim term collected for the event and is the topic variable for the AE dataset. It is a required variable and must have a value. **[Source: domains/AE/assumptions.md — item_2a]**",
      "elapsed_s": 4.43
    },
    {
      "id": "q02",
      "category": "single_domain",
      "question": "What are the required (Core=Req) variables in the DM domain?",
      "source_recall": 1.0,
      "source_hits": [
        "domains/DM/spec.md"
      ],
      "source_misses": [],
      "top5_sources": [
        "domains/DM/spec.md",
        "domains/DM/spec.md",
        "domains/DM/spec.md",
        "domains/DM/spec.md",
        "chapters/ch04_general_assumptions.md"
      ],
      "top5_similarities": [
        0.4813,
        0.4254,
        0.4052,
        0.404,
        0.5063
      ],
      "fact_recall": 0.5714,
      "fact_hits": [
        "STUDYID",
        "DOMAIN",
        "USUBJID",
        "SUBJID"
      ],
      "fact_misses": [
        "SITEID",
        "SEX",
        "COUNTRY"
      ],
      "answer_preview": "Based on the retrieved context, the DM (Demographics) domain specification does not provide a full list of all required variables in a single table. However, the context does identify the following required (Core=Req) variables for the DM domain:\n\n1. **STUDYID** — Required Identifier (implied by general rules; not explicitly listed in the DM spec but universally required)\n2. **DOMAIN** — Required Identifier (Core=Req) **[Source: domains/DM/spec.md — DOMAIN]**\n3. **USUBJID** — Required Identifier (implied by general rules; not explicitly listed in the DM spec but universally required)\n\nThe DM s",
      "usage": {
        "prompt_tokens": 13731,
        "completion_tokens": 256,
        "total_tokens": 13987
      },
      "model": "deepseek/deepseek-chat",
      "answer": "Based on the retrieved context, the DM (Demographics) domain specification does not provide a full list of all required variables in a single table. However, the context does identify the following required (Core=Req) variables for the DM domain:\n\n1. **STUDYID** — Required Identifier (implied by general rules; not explicitly listed in the DM spec but universally required)\n2. **DOMAIN** — Required Identifier (Core=Req) **[Source: domains/DM/spec.md — DOMAIN]**\n3. **USUBJID** — Required Identifier (implied by general rules; not explicitly listed in the DM spec but universally required)\n\nThe DM spec file retrieved only shows the DOMAIN variable definition explicitly. The full set of required variables for DM is defined in the SDTM model for special-purpose domains (referenced as [Model Definition](../../model/03_special_purpose_domains.md)), which was not fully retrieved in the provided context.\n\n**To get the complete list of required variables for DM**, you would need to read the file `model/03_special_purpose_domains.md`, which contains the full DM variable specification table. The context indicates this file exists but its contents were not included in the retrieved passages.",
      "elapsed_s": 6.16
    },
    {
      "id": "q03",
      "category": "single_domain",
      "question": "What are the key assumptions for adverse event data collection and coding?",
      "source_recall": 1.0,
      "source_hits": [
        "domains/AE/assumptions.md"
      ],
      "source_misses": [],
      "top5_sources": [
        "domains/AE/assumptions.md",
        "domains/FA/examples.md",
        "domains/AE/assumptions.md",
        "domains/AE/assumptions.md",
        "domains/AE/assumptions.md"
      ],
      "top5_similarities": [
        0.5919,
        0.5041,
        0.5608,
        0.5755,
        0.5716
      ],
      "fact_recall": 1.0,
      "fact_hits": [
        "AETERM",
        "MedDRA",
        "AEDECOD"
      ],
      "fact_misses": [],
      "answer_preview": "# Key Assumptions for Adverse Event Data Collection and Coding\n\nBased on the SDTMIG v3.4 knowledge base, the following are the key assumptions for adverse event data collection and coding:\n\n## 1. Scope and Definition of Adverse Events\n\nThe AE dataset includes clinical data describing \"any untoward medical occurrence in a patient or clinical investigation subject administered a pharmaceutical product and which does not necessarily have to have a causal relationship with this treatment\" (ICH E2A). Sponsors may extend or limit the scope of AE collection in consultation with regulatory authorities",
      "usage": {
        "prompt_tokens": 16399,
        "completion_tokens": 1525,
        "total_tokens": 17924
      },
      "model": "deepseek/deepseek-chat",
      "answer": "# Key Assumptions for Adverse Event Data Collection and Coding\n\nBased on the SDTMIG v3.4 knowledge base, the following are the key assumptions for adverse event data collection and coding:\n\n## 1. Scope and Definition of Adverse Events\n\nThe AE dataset includes clinical data describing \"any untoward medical occurrence in a patient or clinical investigation subject administered a pharmaceutical product and which does not necessarily have to have a causal relationship with this treatment\" (ICH E2A). Sponsors may extend or limit the scope of AE collection in consultation with regulatory authorities (e.g., collecting pre-treatment events related to trial conduct, not collecting events assessed as efficacy endpoints). The events included should be consistent with protocol requirements. **[Source: domains/AE/assumptions.md — item_1]**\n\n## 2. AE Description and Coding\n\n- **AETERM** is the **topic variable** capturing the verbatim term collected for the event. It is a **required variable** and must have a value. **[Source: domains/AE/assumptions.md — item_2a]**\n- **AEMODIFY** is a **permissible variable** included if the sponsor's procedure permits modification of a verbatim term for coding. **[Source: domains/AE/assumptions.md — item_2b]**\n- **AEDECOD** is the **preferred term** derived from the coding dictionary (e.g., MedDRA). It is a **required variable** and must have a value. The dictionary name and version must be provided in Define-XML. **[Source: domains/AE/assumptions.md — item_2c]**\n- **AEBODSYS** is the **system organ class (SOC)** from the coding dictionary. This value may differ from the primary SOC in the dictionary's standard hierarchy. It is expected to be populated. **[Source: domains/AE/assumptions.md — item_2d]**\n\n## 3. Prespecified Terms and Presence/Absence of Events\n\n- Adverse events may be collected via **free text** or a **prespecified list of terms**. **[Source: domains/AE/assumptions.md — item_4a]**\n- **AEPRESP** = \"Y\" indicates the event was prespecified on the CRF. **[Source: domains/AE/assumptions.md — item_4a]**\n- If it is important to know which prespecified AEs were **not reported**, these data should be submitted in a **Findings class dataset** (e.g., FA — Findings About Events or Interventions). **[Source: domains/AE/assumptions.md — item_4b]**\n- For studies collecting both prespecified and free-text events: AEPRESP = \"Y\" for prespecified events, **null** for free-text events. AEPRESP may be omitted if all events are free text. **[Source: domains/AE/assumptions.md — item_4c]**\n- **Do not include records** for subjects with \"no adverse events\" — only include records for events that actually occurred. **[Source: domains/AE/assumptions.md — item_4d]**\n\n## 4. Seriousness Classification\n\n- If \"Serious?\" is answered \"No\", seriousness category variables (e.g., AESCAN, AESCONG) may be **null**. If \"Yes\", at least one category variable will have \"Y\". **[Source: domains/AE/assumptions.md — item_7a]**\n- If the CRF collects a response for each seriousness category, all category variables (e.g., AESDTH, AESHOSP) would be populated and AESER derived. **[Source: domains/AE/assumptions.md — item_7a]**\n- Categories \"Involves cancer\" (AESCAN) and \"Occurred with overdose\" (AESOD) are **not part of the ICH definition** but are available for studies under pre-ICH guidelines. **[Source: domains/AE/assumptions.md — item_7b]**\n- Descriptions of \"Other Medically Important SAE\" should be placed in **SUPPAE** using QNAM = **AEOSOSP**. **[Source: domains/AE/assumptions.md — item_7c]**\n\n## 5. Severity vs. Toxicity Grade\n\n- For studies using a standard toxicity scale (e.g., CTCAE v3.0), use **AETOXGR** instead of **AESEV**. In most cases, only one is populated. The dictionary name and version must be in Define-XML. **[Source: domains/AE/assumptions.md — item_7d]**\n\n## 6. Record Structure (One Record per Event)\n\nThe AE domain structure is **1 record per adverse event per subject**. The sponsor defines what constitutes an event. Options include:\n\n- **One record per event** covering start to finish (summary record \"collapsed\" to highest severity, causality, seriousness, and final outcome).\n- **One record per event** with changes over time submitted as separate events, or alternatively in a **Findings About Events and Interventions** dataset (FA). **[Source: domains/AE/assumptions.md — item_7e]**\n\n## 7. Use of EPOCH and TAETORD\n\n- **EPOCH** in the AE domain should be based on **AESTDTC** (start of the adverse event), not AEENDTC. The computational method in Define-XML should describe assumptions for ambiguous cases (e.g., same-day epoch transitions). **[Source: domains/AE/assumptions.md — item_8]**\n- Similarly, **TAETORD** should be based on the start of the adverse event. **[Source: domains/AE/assumptions.md — item_8]**\n\n## 8. Relationship to Other Domains\n\n- When disposition (DS) is related to an AE (e.g., death due to heart failure), the relationship is represented in **RELREC** using IDVAR = DSSEQ and AESEQ with a common RELID. **[Source: domains/DS/examples.md — Example 4]**\n- Prespecified AE occurrence data can be represented in **FA** (Findings About Events or Interventions) with FAOBJ = AEDECOD value, and corresponding AE records with AEPRESP = \"Y\". **[Source: domains/FA/examples.md — Example 4]**\n- Severity assessments over time (snapshots/slices of an AE) can be represented in **FA** using FATESTCD = \"SEV\" with FAOBJ = AEDECOD. **[Source: domains/FA/examples.md — Example 6]**\n\n## 9. Supplemental Qualifiers\n\n- Non-standard variables (e.g., \"Other Medically Important SAE\" description) are placed in **SUPPAE** using QNAM codes (e.g., AEOSP) linked via IDVAR = AESEQ and IDVARVAL. **[Source: domains/SUPPQUAL/examples.md — Example 1]**\n\n## 10. Clinical Events (CE) Domain\n\n- Collection of write-in events on a CE CRF should be done with caution — sponsors must ensure all adverse events are recorded in the **AE domain**. **[Source: domains/CE/assumptions.md — item_3]**",
      "elapsed_s": 14.66
    },
    {
      "id": "q04",
      "category": "single_domain",
      "question": "What is the purpose of the TV (Trial Visits) domain and what variables does it contain?",
      "source_recall": 1.0,
      "source_hits": [
        "domains/TV/spec.md"
      ],
      "source_misses": [],
      "top5_sources": [
        "domains/TV/spec.md",
        "domains/TV/spec.md",
        "domains/TV/spec.md",
        "domains/TV/spec.md",
        "domains/SV/assumptions.md"
      ],
      "top5_similarities": [
        0.5893,
        0.4733,
        0.4706,
        0.47,
        0.6873
      ],
      "fact_recall": 1.0,
      "fact_hits": [
        "VISITNUM",
        "VISIT"
      ],
      "fact_misses": [],
      "answer_preview": "## TV (Trial Visits) Domain — Purpose and Variables\n\n### Purpose\n\nThe TV (Trial Visits) domain is a **Trial Design** domain that describes the **protocol-defined planned schedule of subject encounters** at the healthcare facility where the study is being conducted. It defines the planned visits for the trial, including their timing rules and relationships to trial elements and epochs.\n\nKey purposes include:\n- Defining the planned clinical encounters (visits) as described in the protocol\n- Providing visit timing rules (start and end rules) relative to elements or epochs\n- Serving as the referen",
      "usage": {
        "prompt_tokens": 14229,
        "completion_tokens": 892,
        "total_tokens": 15121
      },
      "model": "deepseek/deepseek-chat",
      "answer": "## TV (Trial Visits) Domain — Purpose and Variables\n\n### Purpose\n\nThe TV (Trial Visits) domain is a **Trial Design** domain that describes the **protocol-defined planned schedule of subject encounters** at the healthcare facility where the study is being conducted. It defines the planned visits for the trial, including their timing rules and relationships to trial elements and epochs.\n\nKey purposes include:\n- Defining the planned clinical encounters (visits) as described in the protocol\n- Providing visit timing rules (start and end rules) relative to elements or epochs\n- Serving as the reference against which actual subject visits (in the SV domain) can be compared\n- Supporting identification of planned but not completed visits **[Source: domains/TV/assumptions.md — overview]**\n\nThe TV dataset, together with the TD (Trial Disease Assessments) dataset, provides the **planned scheduling of assessments** to which a subject's actual visits and disease assessments can be compared. **[Source: domains/TV/assumptions.md — overview]**\n\n---\n\n### Variables\n\nThe TV domain contains the following variables (from the specification):\n\n| Order | Variable | Label | Type | Role | Core | Controlled Terms |\n|-------|----------|-------|------|------|------|-----------------|\n| 1 | STUDYID | Study Identifier | Char | Identifier | Req | — |\n| 2 | DOMAIN | Domain Abbreviation | Char | Identifier | Req | TV |\n| 3 | VISITNUM | Visit Number | Num | Topic | Req | — |\n| 4 | VISIT | Visit Name | Char | Synonym Qualifier | Req | — |\n| 5 | VISITDY | Planned Study Day of Visit | Num | Timing | Perm | — |\n| 6 | ARMCD | Planned Arm Code | Char | Topic | Perm | (Arm Code codelist) |\n| 7 | ARM | Planned Arm | Char | Synonym Qualifier | Perm | — |\n| 8 | TVSTRL | Visit Start Rule | Char | Rule | Req | — |\n| 9 | TVENRL | Visit End Rule | Char | Rule | Perm | — |\n\n**[Source: domains/TV/spec.md — VISIT, TVSTRL; domains/TV/examples.md — Example 1]**\n\n---\n\n### Key Variable Details\n\n- **VISITNUM** (Req, Topic): Numeric visit number used for sorting; values should match the planned chronological order of visits. **[Source: chapters/ch04_general_assumptions.md — §4.4.5]**\n- **VISIT** (Req, Synonym Qualifier): Description of the clinical encounter, often defined in the protocol. Used in addition to VISITNUM as a text description. **[Source: domains/TV/spec.md — VISIT]**\n- **VISITDY** (Perm, Timing): The planned study day of the start of the visit (not the actual study day). **[Source: chapters/ch04_general_assumptions.md — §4.4.5]**\n- **TVSTRL** (Req, Rule): Rule describing when the visit starts, in relation to the sequence of elements. **[Source: domains/TV/spec.md — TVSTRL]**\n- **TVENRL** (Perm, Rule): Rule describing when the visit ends. **[Source: domains/TV/examples.md — Example 1]**\n- **ARMCD/ARM** (Perm): Populated only when the visit schedule differs by arm; left blank when the schedule is the same for all arms. **[Source: domains/TV/assumptions.md — item_1]**\n\n---\n\n### Related Domains\n\n- **Same class (Trial Design):** TA, TD, TE, TI, TM, TS\n- **Trial Design:** TA — visits reference arms\n- **Trial Design:** SE — planned visits vs actual subject elements\n\n**[Source: domains/TV/spec.md — Related Domains]**\n\n---\n\n### Data Structure\n\nThe general structure is **\"One Record per Planned Visit per Arm\"** — though for many blinded trials where the schedule is the same for all arms, the structure simplifies to **\"One Record per Planned Visit\"** (with ARMCD left blank). **[Source: domains/TV/assumptions.md — item_1]**",
      "elapsed_s": 9.33
    },
    {
      "id": "q05",
      "category": "single_domain",
      "question": "In the PE (Physical Examination) domain, what is the structure of the dataset, what is the role of the PETESTCD variable, and what value should PETESTCD have when the results of the entire physical examination are represented in one record?",
      "source_recall": 1.0,
      "source_hits": [
        "domains/PE/spec.md"
      ],
      "source_misses": [],
      "top5_sources": [
        "domains/PE/spec.md",
        "domains/PE/spec.md",
        "domains/PE/spec.md",
        "domains/PE/spec.md",
        "VARIABLE_INDEX.md"
      ],
      "top5_similarities": [
        0.731,
        0.7026,
        0.5645,
        0.5643,
        0.6909
      ],
      "fact_recall": 1.0,
      "fact_hits": [
        "PETESTCD",
        "Topic",
        "PHYSEXAM"
      ],
      "fact_misses": [],
      "answer_preview": "Based on the retrieved context, here are the answers to your questions about the PE (Physical Examination) domain:\n\n**1. Dataset Structure**\n\nThe PE domain is a **Findings** class domain. The dataset structure is \"One record per body system examined per subject per visit\" (implied by the examples and variable roles). Each record represents the finding for a specific body system (e.g., Head, Skin) or the entire physical examination as a single record.\n\n**2. Role of PETESTCD**\n\n- **Label:** Body System Examined Short Name\n- **Type:** Char\n- **Role:** Topic\n- **Core:** Req\n- **Controlled Terms:**",
      "usage": {
        "prompt_tokens": 16877,
        "completion_tokens": 318,
        "total_tokens": 17195
      },
      "model": "deepseek/deepseek-chat",
      "answer": "Based on the retrieved context, here are the answers to your questions about the PE (Physical Examination) domain:\n\n**1. Dataset Structure**\n\nThe PE domain is a **Findings** class domain. The dataset structure is \"One record per body system examined per subject per visit\" (implied by the examples and variable roles). Each record represents the finding for a specific body system (e.g., Head, Skin) or the entire physical examination as a single record.\n\n**2. Role of PETESTCD**\n\n- **Label:** Body System Examined Short Name\n- **Type:** Char\n- **Role:** Topic\n- **Core:** Req\n- **Controlled Terms:** (None specified in the spec)\n- **CDISC Notes:** Short name of a part of the body examined in a physical examination. It can be used as a column name when converting a dataset from a vertical to a horizontal format. The value in PETESTCD cannot be longer than 8 characters, nor can it start with a number (e.g., \"1TEST\" is not valid). PETESTCD cannot contain characters other than letters, numbers, or underscores. Examples: \"HEAD\", \"ENT\".\n\n**[Source: domains/PE/spec.md -- PETESTCD]**\n\n**3. Value for a Single Record Representing the Entire Examination**\n\nWhen the results of the entire physical examination are represented in one record, the value for **PETESTCD** should be **\"PHYSEXAM\"**.\n\n**[Source: domains/PE/spec.md -- PETESTCD]**",
      "elapsed_s": 4.64
    },
    {
      "id": "q21",
      "category": "single_domain",
      "question": "What is the LBTESTCD variable in the LB (Laboratory Test Results) domain? Describe its role, controlled terminology codelist code, and naming constraints.",
      "source_recall": 1.0,
      "source_hits": [
        "domains/LB/spec.md"
      ],
      "source_misses": [],
      "top5_sources": [
        "domains/LB/spec.md",
        "terminology/core/lb_part2.md",
        "domains/LB/spec.md",
        "domains/LB/assumptions.md",
        "domains/LB/examples.md"
      ],
      "top5_similarities": [
        0.7837,
        0.5222,
        0.7118,
        0.7499,
        0.6639
      ],
      "fact_recall": 1.0,
      "fact_hits": [
        "Topic",
        "C65047",
        "8 characters"
      ],
      "fact_misses": [],
      "answer_preview": "## LBTESTCD — Lab Test or Examination Short Name\n\nBased on the retrieved context, here is the complete specification for the LBTESTCD variable in the LB domain:\n\n### Variable Definition\n\n| Attribute | Value |\n|-----------|-------|\n| **Label** | Lab Test or Examination Short Name |\n| **Type** | Char |\n| **Role** | Topic |\n| **Core** | Required |\n| **Controlled Terms** | C65047 (Laboratory Test Code) |\n\n**[Source: domains/LB/spec.md — LBTESTCD]**\n\n### Naming Constraints\n\nThe CDISC Notes specify three constraints on LBTESTCD values:\n\n1. **Maximum length**: Cannot be longer than 8 characters.\n2. *",
      "usage": {
        "prompt_tokens": 15863,
        "completion_tokens": 557,
        "total_tokens": 16420
      },
      "model": "deepseek/deepseek-chat",
      "answer": "## LBTESTCD — Lab Test or Examination Short Name\n\nBased on the retrieved context, here is the complete specification for the LBTESTCD variable in the LB domain:\n\n### Variable Definition\n\n| Attribute | Value |\n|-----------|-------|\n| **Label** | Lab Test or Examination Short Name |\n| **Type** | Char |\n| **Role** | Topic |\n| **Core** | Required |\n| **Controlled Terms** | C65047 (Laboratory Test Code) |\n\n**[Source: domains/LB/spec.md — LBTESTCD]**\n\n### Naming Constraints\n\nThe CDISC Notes specify three constraints on LBTESTCD values:\n\n1. **Maximum length**: Cannot be longer than 8 characters.\n2. **First character**: Cannot start with a number (e.g., \"1TEST\" is not valid).\n3. **Permitted characters**: Cannot contain characters other than letters, numbers, or underscores.\n\n**Examples provided**: \"ALT\", \"LDH\"\n\n**[Source: domains/LB/spec.md — LBTESTCD]**\n\n### Role Description\n\nAs a **Topic variable**, LBTESTCD specifies the focus of the observation — in this case, the short name of the laboratory measurement or test. It can be used as a column name when converting a dataset from a vertical to a horizontal format.\n\n**[Source: chapters/ch02_fundamentals.md — §2.1 Observations and Variables]**\n\n### Controlled Terminology\n\nLBTESTCD uses the **Laboratory Test Code** codelist (C65047). The full list of permitted values is maintained in the terminology file at `terminology/core/lb_part2.md`. This codelist contains hundreds of standard short names for laboratory tests (e.g., \"ALT\", \"LDH\", \"KIM1S\", \"KL6\", \"LACTICAC\", etc.).\n\n**[Source: domains/LB/spec.md — Controlled Terminology section, referencing C65047 → terminology/core/lb_part2.md]**\n\n### Relationship to LBTEST\n\nLBTESTCD is the short name counterpart to **LBTEST** (Lab Test or Examination Name, C67154), which serves as a Synonym Qualifier. LBTEST contains the full verbatim test name (e.g., \"Alanine Aminotransferase\" for LBTESTCD=\"ALT\") and cannot exceed 40 characters.\n\n**[Source: domains/LB/spec.md — LBTEST]**\n\n### Summary\n\nLBTESTCD is a **Required** Topic variable that provides a standardized, abbreviated identifier for laboratory tests, constrained to 8 alphanumeric/underscore characters, drawn from the CDISC Laboratory Test Code codelist (C65047).",
      "elapsed_s": 7.3
    },
    {
      "id": "q22",
      "category": "single_domain",
      "question": "What is the VS (Vital Signs) domain and what are some examples of VSTESTCD values? Include the codelist code.",
      "source_recall": 1.0,
      "source_hits": [
        "domains/VS/spec.md"
      ],
      "source_misses": [],
      "top5_sources": [
        "domains/VS/spec.md",
        "terminology/core/vs.md",
        "domains/VS/spec.md",
        "VARIABLE_INDEX.md",
        "domains/VS/assumptions.md"
      ],
      "top5_similarities": [
        0.7384,
        0.5465,
        0.6467,
        0.6305,
        0.6914
      ],
      "fact_recall": 1.0,
      "fact_hits": [
        "Findings",
        "VSTESTCD",
        "C66741"
      ],
      "fact_misses": [],
      "answer_preview": "## VS (Vital Signs) Domain\n\nThe VS domain is a **Findings** class domain used to represent vital signs measurements collected during a clinical trial, such as blood pressure, heart rate, temperature, respiratory rate, and body mass index. **[Source: VARIABLE_INDEX.md — VS — Vital Signs (Findings)]**\n\n### Key Characteristics\n\n- **Class:** Findings\n- **Structure:** One record per vital sign test result per subject per time point\n- **Purpose:** Tabulation\n- **Keys:** STUDYID, USUBJID, VSTESTCD, VSDTC (natural key structure)\n\n### VSTESTCD — Vital Signs Test Short Name\n\n- **Label:** Vital Signs Tes",
      "usage": {
        "prompt_tokens": 14142,
        "completion_tokens": 582,
        "total_tokens": 14724
      },
      "model": "deepseek/deepseek-chat",
      "answer": "## VS (Vital Signs) Domain\n\nThe VS domain is a **Findings** class domain used to represent vital signs measurements collected during a clinical trial, such as blood pressure, heart rate, temperature, respiratory rate, and body mass index. **[Source: VARIABLE_INDEX.md — VS — Vital Signs (Findings)]**\n\n### Key Characteristics\n\n- **Class:** Findings\n- **Structure:** One record per vital sign test result per subject per time point\n- **Purpose:** Tabulation\n- **Keys:** STUDYID, USUBJID, VSTESTCD, VSDTC (natural key structure)\n\n### VSTESTCD — Vital Signs Test Short Name\n\n- **Label:** Vital Signs Test Short Name\n- **Type:** Char\n- **Role:** Topic\n- **Core:** Req\n- **Controlled Terms:** C66741 (Vital Signs Test Code codelist)\n- **CDISC Notes:** Short name of the measurement, test, or examination described in VSTEST. Cannot be longer than 8 characters, cannot start with a number, and cannot contain characters other than letters, numbers, or underscores. **[Source: domains/VS/spec.md — VSTESTCD]**\n\n### Examples of VSTESTCD Values\n\nThe following are examples of VSTESTCD values from the CDISC Notes in the VS specification:\n\n| VSTESTCD | VSTEST (Test Name) |\n|----------|-------------------|\n| SYSBP | Systolic Blood Pressure |\n| DIABP | Diastolic Blood Pressure |\n| BMI | Body Mass Index |\n\n**[Source: domains/VS/spec.md — VSTESTCD]**\n\nThe complete list of valid VSTESTCD values is defined in the **Vital Signs Test Code (C66741)** codelist, which is an extensible codelist. **[Source: domains/VS/spec.md — Controlled Terminology]**\n\n### Related Controlled Terminology\n\nThe VS domain references several controlled terminology codelists:\n\n| Variable | Codelist Code | Codelist Name |\n|----------|--------------|---------------|\n| VSTESTCD | C66741 | Vital Signs Test Code |\n| VSTEST | C67153 | Vital Signs Test Name |\n| VSORRESU, VSSTRESU | C66770 | Units for Vital Signs Results |\n| VSPOS | C71148 | Position |\n| VSLOC | C74456 | Anatomical Location |\n| VSLAT | C99073 | Laterality |\n| VSSTAT | C66789 | Not Done |\n| VSLOBXFL, VSBLFL, VSDRVFL, VSCLSIG | C66742 | No Yes Response |\n| EPOCH | C99079 | Epoch |\n\n**[Source: domains/VS/spec.md — Controlled Terminology]**",
      "elapsed_s": 6.88
    },
    {
      "id": "q23",
      "category": "single_domain",
      "question": "In the CM (Concomitant Medications) domain, what is the CMTRT variable and what observation class does CM belong to?",
      "source_recall": 1.0,
      "source_hits": [
        "domains/CM/spec.md"
      ],
      "source_misses": [],
      "top5_sources": [
        "domains/CM/spec.md",
        "domains/CM/spec.md",
        "domains/CM/spec.md",
        "domains/CM/spec.md",
        "domains/CM/assumptions.md"
      ],
      "top5_similarities": [
        0.6736,
        0.6034,
        0.5926,
        0.5843,
        0.6595
      ],
      "fact_recall": 1.0,
      "fact_hits": [
        "CMTRT",
        "Interventions",
        "Topic",
        "Req"
      ],
      "fact_misses": [],
      "answer_preview": "Based on the retrieved context, here is the answer:\n\n**CMTRT** is the **Reported Name of Drug, Med, or Therapy**. It is the Topic variable for the CM domain, with a Core of **Required** (Req) and a Type of **Char**. It captures the verbatim medication name as collected on the CRF and must contain only the medication/therapy name, excluding dosage, formulation, or other qualifying information. For example, \"ASPIRIN 100MG TABLET\" is not valid; it should be split into CMTRT=\"ASPIRIN\", CMDOSE=\"100\", CMDOSU=\"MG\", and CMDOSFRM=\"TABLET\". **[Source: domains/CM/spec.md — CMTRT]** **[Source: domains/CM/",
      "usage": {
        "prompt_tokens": 14553,
        "completion_tokens": 217,
        "total_tokens": 14770
      },
      "model": "deepseek/deepseek-chat",
      "answer": "Based on the retrieved context, here is the answer:\n\n**CMTRT** is the **Reported Name of Drug, Med, or Therapy**. It is the Topic variable for the CM domain, with a Core of **Required** (Req) and a Type of **Char**. It captures the verbatim medication name as collected on the CRF and must contain only the medication/therapy name, excluding dosage, formulation, or other qualifying information. For example, \"ASPIRIN 100MG TABLET\" is not valid; it should be split into CMTRT=\"ASPIRIN\", CMDOSE=\"100\", CMDOSU=\"MG\", and CMDOSFRM=\"TABLET\". **[Source: domains/CM/spec.md — CMTRT]** **[Source: domains/CM/assumptions.md — item_2a]**\n\n**CM belongs to the Interventions observation class.** The overview states it is \"An interventions domain that contains concomitant and prior medications used by the subject...\" **[Source: domains/CM/assumptions.md — overview]**",
      "elapsed_s": 3.89
    },
    {
      "id": "q24",
      "category": "single_domain",
      "question": "What is the EX (Exposure) domain used for and what is the Topic variable EXTRT?",
      "source_recall": 1.0,
      "source_hits": [
        "domains/EX/spec.md"
      ],
      "source_misses": [],
      "top5_sources": [
        "domains/EX/spec.md",
        "domains/EX/spec.md",
        "domains/EX/spec.md",
        "domains/EX/spec.md",
        "domains/EX/assumptions.md"
      ],
      "top5_similarities": [
        0.5483,
        0.5451,
        0.5409,
        0.537,
        0.6559
      ],
      "fact_recall": 1.0,
      "fact_hits": [
        "EXTRT",
        "Interventions",
        "protocol-specified"
      ],
      "fact_misses": [],
      "answer_preview": "## EX (Exposure) Domain — Purpose and Topic Variable\n\n### Domain Purpose\n\nThe EX (Exposure) domain represents **protocol-specified study treatment administrations** that have been received by a subject. It is an **Interventions** class domain. Key characteristics:\n\n- **Scope**: Represents treatments that are protocol-specified (e.g., investigational product, placebo, active comparator). Non-protocol-specified treatments go in CM (Concomitant/Prior Medications) or another Interventions domain. **[Source: domains/EX/assumptions.md — item_1a]**\n- **Derived dataset**: EX is recognized in most case",
      "usage": {
        "prompt_tokens": 13671,
        "completion_tokens": 702,
        "total_tokens": 14373
      },
      "model": "deepseek/deepseek-chat",
      "answer": "## EX (Exposure) Domain — Purpose and Topic Variable\n\n### Domain Purpose\n\nThe EX (Exposure) domain represents **protocol-specified study treatment administrations** that have been received by a subject. It is an **Interventions** class domain. Key characteristics:\n\n- **Scope**: Represents treatments that are protocol-specified (e.g., investigational product, placebo, active comparator). Non-protocol-specified treatments go in CM (Concomitant/Prior Medications) or another Interventions domain. **[Source: domains/EX/assumptions.md — item_1a]**\n- **Derived dataset**: EX is recognized in most cases as a **derived dataset**, where EXDOSU reflects the protocol-specified unit. Collected data points (e.g., number of tablets, total volume infused) are represented in the EC (Exposure as Collected) domain. **[Source: domains/EX/assumptions.md — item_1b, item_5]**\n- **Required**: The EX domain is required for all studies that include protocol-specified study treatment. **[Source: domains/EX/assumptions.md — item_1c]**\n- **Record structure**: Contains 1 record per constant-dosing interval per subject. A constant-dosing interval is any period described in terms of a known treatment given at a consistent dose, frequency, infusion rate, etc. **[Source: domains/EX/assumptions.md — item_1d]**\n- **Relationship to EC**: When both EC and EX are implemented, the relationship between records can be described using RELREC. **[Source: domains/EX/assumptions.md — item_5]**\n\n### Topic Variable: EXTRT\n\n| Attribute | Value |\n|-----------|-------|\n| **Label** | Name of Treatment |\n| **Type** | Char |\n| **Role** | Topic |\n| **Core** | Required (Req) |\n| **Controlled Terms** | — (not specified; sponsor-defined) |\n\n**[Source: VARIABLE_INDEX.md — EX — Exposure (Interventions)]**\n\n**CDISC Notes / Rules**:\n- EXTRT captures the name of the protocol-specified study treatment and is the **topic variable**. It is a **required variable** and must have a value. **[Source: domains/EX/assumptions.md — item_2a]**\n- EXTRT must include **only the treatment name** and must **not** include dosage, formulation, or other qualifying information. For example, \"ASPIRIN 100MG TABLET\" is not valid; this should be expressed as EXTRT = \"ASPIRIN\", EXDOSE = \"100\", EXDOSU = \"mg\", and EXDOSFRM = \"TABLET\". **[Source: domains/EX/assumptions.md — item_2a]**\n- Doses of placebo should be represented by EXTRT = \"PLACEBO\" and EXDOSE = \"0\". **[Source: domains/EX/assumptions.md — item_2b]**\n\n### Related Domains\n\n- **Same class (Interventions)**: AG, CM, EC, ML, PR, SU **[Source: domains/EX/spec.md — Related Domains]**\n- **Shared Dataset**: EC (Exposure as Collected) — for collected exposure data points that are used to derive EX records **[Source: domains/EX/spec.md — Related Domains]**",
      "elapsed_s": 8.04
    },
    {
      "id": "q25",
      "category": "single_domain",
      "question": "In the MH (Medical History) domain, what is the role of MHTERM and what assumptions guide medical history data collection?",
      "source_recall": 1.0,
      "source_hits": [
        "domains/MH/assumptions.md"
      ],
      "source_misses": [],
      "top5_sources": [
        "domains/MH/spec.md",
        "domains/MH/spec.md",
        "domains/MH/spec.md",
        "domains/MH/spec.md",
        "domains/MH/assumptions.md"
      ],
      "top5_similarities": [
        0.6765,
        0.6119,
        0.594,
        0.586,
        0.7369
      ],
      "fact_recall": 1.0,
      "fact_hits": [
        "MHTERM",
        "Topic",
        "Verbatim"
      ],
      "fact_misses": [],
      "answer_preview": "Based on the retrieved context, here is the role of MHTERM and the assumptions guiding medical history data collection in the MH domain.\n\n### Role of MHTERM\n\n- **Label:** Reported Term for the Medical History\n- **Type:** Char\n- **Role:** Topic\n- **Core:** Req\n- **Controlled Terms:** (none)\n- **CDISC Notes:** Verbatim or preprinted CRF term for the medical condition or event.\n\n**[Source: domains/MH/spec.md]**\n\n### Assumptions Guiding Medical History Data Collection\n\n1.  **MH Description and Coding:**\n    - **MHTERM** is the Topic variable and captures the verbatim or prespecified term for the c",
      "usage": {
        "prompt_tokens": 14453,
        "completion_tokens": 907,
        "total_tokens": 15360
      },
      "model": "deepseek/deepseek-chat",
      "answer": "Based on the retrieved context, here is the role of MHTERM and the assumptions guiding medical history data collection in the MH domain.\n\n### Role of MHTERM\n\n- **Label:** Reported Term for the Medical History\n- **Type:** Char\n- **Role:** Topic\n- **Core:** Req\n- **Controlled Terms:** (none)\n- **CDISC Notes:** Verbatim or preprinted CRF term for the medical condition or event.\n\n**[Source: domains/MH/spec.md]**\n\n### Assumptions Guiding Medical History Data Collection\n\n1.  **MH Description and Coding:**\n    - **MHTERM** is the Topic variable and captures the verbatim or prespecified term for the condition or event. It is required and must have a value.\n    - **MHMODIFY** is a permissible variable for sponsor-modified terms prior to coding.\n    - If a standard dictionary is used for coding, **MHDECOD** is populated with the preferred term, and the dictionary name/version is documented in Define-XML.\n    - **MHBODSYS** is the System Organ Class (SOC) from the coding dictionary.\n    - If a CRF collects medical history by prespecified body systems and the sponsor also codes terms, **MHDECOD** and **MHBODSYS** come from the dictionary, while **MHCAT** and **MHSCAT** are used for the prespecified CRF body systems.\n\n    **[Source: domains/MH/assumptions.md — item_2]**\n\n2.  **Additional Categorization and Grouping:**\n    - **MHCAT** and **MHSCAT** may be populated with the sponsor's predefined categorization (often from the CRF). This should not be a generic group like \"Medical History\" (redundant with the domain code). Examples include \"General Medical History\" or \"Allergy Medical History\".\n    - **MHGRPID** is used to link related records at the subject level within the MH domain (e.g., grouping records for a single disease), not as a substitute for MHCAT/MHSCAT.\n\n    **[Source: domains/MH/assumptions.md — item_3]**\n\n3.  **Prespecified Terms and Occurrence:**\n    - Medical history is collected either as free text or from a prespecified list of terms.\n    - **MHPRESP** and **MHOCCUR** are used together to indicate if a term was prespecified and whether it occurred.\n    - **MHPRESP = \"Y\"** indicates the term was prespecified.\n    - **MHOCCUR = \"Y\"** indicates the event occurred; **\"N\"** indicates it did not.\n    - For free-text reports, both MHPRESP and MHOCCUR should be null.\n    - **MHSTAT** and **MHREASND** provide information about prespecified questions for which no response was collected (e.g., MHSTAT = \"NOT DONE\").\n\n    | Situation | MHPRESP | MHOCCUR | MHSTAT |\n    |-----------|---------|---------|--------|\n    | Spontaneously reported event occurred | (null) | (null) | (null) |\n    | Pre-specified event occurred | Y | Y | (null) |\n    | Pre-specified event did not occur | Y | N | (null) |\n    | Pre-specified event has no response | Y | (null) | NOT DONE |\n\n    **[Source: domains/MH/assumptions.md — item_4]**\n\n4.  **Timing Variables:**\n    - **MHDTC** is the Date/Time of History Collection (ISO 8601 format).\n    - **MHSTDTC** and **MHENDTC** are the start and end date/times of the medical history event.\n    - **MHENRF** (End Relative to Reference Period) and **MHENRTPT** (End Relative to Reference Time Point) are used to indicate whether the event was ongoing or had ended relative to a reference point (e.g., \"DURING/AFTER\" for ongoing, \"BEFORE\" for ended). Controlled terms for these variables come from codelist C66728.\n\n    **[Source: domains/MH/spec.md; domains/MH/examples.md — Example 1, Example 2]**",
      "elapsed_s": 9.65
    },
    {
      "id": "q26",
      "category": "single_domain",
      "question": "Describe the EG (ECG Test Results) domain structure and the EGTESTCD variable, including its controlled terminology codelist codes.",
      "source_recall": 1.0,
      "source_hits": [
        "domains/EG/spec.md"
      ],
      "source_misses": [],
      "top5_sources": [
        "domains/EG/spec.md",
        "terminology/core/eg_part3.md",
        "terminology/core/eg_part2.md",
        "domains/EG/spec.md",
        "VARIABLE_INDEX.md"
      ],
      "top5_similarities": [
        0.7263,
        0.588,
        0.5242,
        0.7253,
        0.6737
      ],
      "fact_recall": 1.0,
      "fact_hits": [
        "EGTESTCD",
        "Findings",
        "C71153"
      ],
      "fact_misses": [],
      "answer_preview": "## EG (ECG Test Results) Domain Structure\n\nThe EG domain is a **Findings** class domain representing electrocardiogram test results and interpretations. It contains 35 variables covering identifiers, topic variables, qualifiers, and timing variables.\n\n### Variable Summary (from VARIABLE_INDEX.md)\n\n| Role | Variables |\n|------|-----------|\n| **Identifier** (5) | EGSEQ, EGGRPID, EGREFID, EGSPID, EGBEATNO |\n| **Topic** (2) | EGTESTCD (Req), EGTEST (Req) |\n| **Synonym Qualifier** (1) | EGTEST |\n| **Grouping Qualifier** (2) | EGCAT, EGSCAT |\n| **Record Qualifier** (12) | EGPOS, EGSTAT, EGREASND, EG",
      "usage": {
        "prompt_tokens": 16360,
        "completion_tokens": 1285,
        "total_tokens": 17645
      },
      "model": "deepseek/deepseek-chat",
      "answer": "## EG (ECG Test Results) Domain Structure\n\nThe EG domain is a **Findings** class domain representing electrocardiogram test results and interpretations. It contains 35 variables covering identifiers, topic variables, qualifiers, and timing variables.\n\n### Variable Summary (from VARIABLE_INDEX.md)\n\n| Role | Variables |\n|------|-----------|\n| **Identifier** (5) | EGSEQ, EGGRPID, EGREFID, EGSPID, EGBEATNO |\n| **Topic** (2) | EGTESTCD (Req), EGTEST (Req) |\n| **Synonym Qualifier** (1) | EGTEST |\n| **Grouping Qualifier** (2) | EGCAT, EGSCAT |\n| **Record Qualifier** (12) | EGPOS, EGSTAT, EGREASND, EGXFN, EGNAM, EGMETHOD, EGLEAD, EGLOBXFL, EGBLFL, EGDRVFL, EGEVAL, EGCLSIG, EGREPNUM |\n| **Result Qualifier** (3) | EGORRES, EGSTRESC, EGSTRESN |\n| **Variable Qualifier** (2) | EGORRESU, EGSTRESU |\n| **Timing** (8) | EGDTC, EGDY, EGTPT, EGTPTNUM, EGELTM, EGTPTREF, EGRFTDTC |\n\n**[Source: domains/EG/spec.md — variable table; Source: VARIABLE_INDEX.md — EG section]**\n\n---\n\n## EGTESTCD Variable Definition\n\n| Attribute | Value |\n|-----------|-------|\n| **Order** | 10 |\n| **Label** | ECG Test or Examination Short Name |\n| **Type** | Char |\n| **Controlled Terms** | C71153; C120523 |\n| **Role** | Topic |\n| **Core** | Req |\n| **CDISC Notes** | Short name of the measurement, test, or examination described in EGTEST. Cannot exceed 8 characters, cannot start with a number, and cannot contain characters other than letters, numbers, or underscores. Examples: \"PRAG\", \"QRSAG\". Test codes are in 2 separate codelists: one for tests based on regular 10-second ECGs (EGTESTCD) and one for tests based on Holter monitoring (HETESTCD). |\n\n**[Source: domains/EG/spec.md — EGTESTCD entry]**\n\n---\n\n## Controlled Terminology Codelists for EGTESTCD\n\nEGTESTCD references **two separate codelists**:\n\n### 1. ECG Test Code (C71153) — Regular 10-second ECGs\n- **Extensible:** Yes\n- **Purpose:** Contains test codes for standard 10-second ECG measurements (e.g., heart rate, intervals, axes)\n- **Used for:** Standard clinic/office ECGs\n\n### 2. Holter ECG Test Code (C120523) — Holter Monitoring\n- **Extensible:** Yes\n- **Purpose:** Contains test codes for Holter/continuous ECG monitoring assessments\n- **Example values** (from terminology file):\n  - `AVCOND` — Atrioventricular Conduction\n  - `AXISVOLT` — Axis and Voltage\n  - `CHYPTENL` — Chamber Hypertrophy or Enlargement\n  - `EGCOMP` — Comparison to a Prior ECG\n  - `INTP` — Interpretation\n  - `IVTIACD` — Intraventricular-Intraatrial Conduction\n  - `MI` — Myocardial Infarction\n  - `PACEMAKR` — Pacemaker\n  - `RHYNOS` — Rhythm Not Otherwise Specified\n  - `SNRARRY` — Sinus Node Rhythms and Arrhythmias\n  - `SPRARRY` — Supraventricular Arrhythmias\n  - `SPRTARRY` — Supraventricular Tachyarrhythmias\n  - `STSTWUW` — ST Segment, T wave, and U wave\n  - `TECHQUAL` — Technical Quality\n  - `VTARRY` — Ventricular Arrhythmias\n  - `VTTARRY` — Ventricular Tachyarrhythmias\n\n**[Source: domains/EG/spec.md — Controlled Terminology section; Source: terminology/core/eg_part3.md — Holter ECG Test Code (C120523)]**\n\n---\n\n## Key Business Rules\n\n1. **Two separate codelists** exist for tests based on regular 10-second ECGs (C71153) and Holter monitoring (C120523). The same separation applies to EGTEST (C71152 vs C120524) and EGSTRESC (C71150 vs C120522/C101834). **[Source: domains/EG/assumptions.md — item_2]**\n\n2. **EGCAT** is used to categorize observations (e.g., \"MEASUREMENT\", \"FINDING\", \"INTERVAL\") and has no controlled terminology. **[Source: domains/EG/spec.md — EGCAT entry]**\n\n3. **EGMETHOD** uses the ECG Test Method codelist (C71151), which includes values such as \"12 LEAD STANDARD\", \"12 LEAD MASON LIKAR\", \"HOLTER CONTINUOUS ECG RECORDING\", etc. **[Source: domains/EG/spec.md — EGMETHOD entry; Source: terminology/core/eg_part2.md — ECG Test Method (C71151)]**\n\n4. **EGLNKID** can be used to link EG records to procedures in the PR domain (e.g., a 24-hour Holter monitor procedure). **[Source: domains/PR/examples.md — Example 2]**\n\n5. **EGDRVFL** (Derived Flag) uses the No Yes Response codelist (C66742) to indicate derived results (e.g., QTcB and QTcF intervals). **[Source: domains/EG/examples.md — Example 1, rows 5-6]**",
      "elapsed_s": 12.95
    },
    {
      "id": "q27",
      "category": "single_domain",
      "question": "What is the IE (Inclusion/Exclusion) domain and what is the role and maximum length of the IETEST variable?",
      "source_recall": 1.0,
      "source_hits": [
        "domains/IE/spec.md"
      ],
      "source_misses": [],
      "top5_sources": [
        "domains/IE/spec.md",
        "domains/IE/spec.md",
        "domains/IE/spec.md",
        "domains/IE/spec.md",
        "domains/TI/spec.md"
      ],
      "top5_similarities": [
        0.6769,
        0.607,
        0.5335,
        0.5254,
        0.7161
      ],
      "fact_recall": 1.0,
      "fact_hits": [
        "IETEST",
        "200",
        "Synonym Qualifier"
      ],
      "fact_misses": [],
      "answer_preview": "## IE Domain Overview\n\nThe **IE** (Inclusion/Exclusion Criteria Not Met) domain is a **Findings** class domain used to collect responses to only those inclusion/exclusion criteria that a subject **did not meet** — not the responses to all criteria. For the complete list of all inclusion/exclusion criteria, the TI (Trial Inclusion/Exclusion Criteria) domain should be referenced. **[Source: domains/IE/assumptions.md — item_1]**\n\nThe IE domain should not be used for general protocol deviation data; violated inclusion/exclusion criteria are stored in IE, while more general deviations go into DV. *",
      "usage": {
        "prompt_tokens": 9852,
        "completion_tokens": 479,
        "total_tokens": 10331
      },
      "model": "deepseek/deepseek-chat",
      "answer": "## IE Domain Overview\n\nThe **IE** (Inclusion/Exclusion Criteria Not Met) domain is a **Findings** class domain used to collect responses to only those inclusion/exclusion criteria that a subject **did not meet** — not the responses to all criteria. For the complete list of all inclusion/exclusion criteria, the TI (Trial Inclusion/Exclusion Criteria) domain should be referenced. **[Source: domains/IE/assumptions.md — item_1]**\n\nThe IE domain should not be used for general protocol deviation data; violated inclusion/exclusion criteria are stored in IE, while more general deviations go into DV. **[Source: domains/DV/assumptions.md — item_2]**\n\n---\n\n## IETEST Variable Definition\n\n| Attribute | Value |\n|-----------|-------|\n| **Label** | Inclusion/Exclusion Criterion |\n| **Type** | Char |\n| **Role** | Synonym Qualifier |\n| **Core** | Req |\n| **Controlled Terms** | (none) |\n| **Maximum Length** | 200 characters |\n\n**[Source: domains/IE/spec.md — IETEST]**\n\n### CDISC Notes\n\n- IETEST contains the verbatim description of the inclusion or exclusion criterion that was the exception for the subject within the study.\n- IETEST cannot be longer than **200 characters**.\n- If the text exceeds 200 characters, put meaningful text in IETEST and describe the full text in the study metadata. **[Source: domains/IE/assumptions.md — item_3]**\n\n### Related Variables\n\n| Variable | Role | Core | Notes |\n|----------|------|------|-------|\n| **IETESTCD** | Topic | Req | Short name (≤8 chars, no leading number, alphanumeric + underscore only) |\n| **IECAT** | Grouping Qualifier | Req | Category of related records (CT: C66797) |\n| **IEORRES** | Result Qualifier | Req | Original response (CT: C66742) |\n| **IESTRESC** | Result Qualifier | Req | Standard format result (CT: C66742) |\n\n**[Source: domains/IE/spec.md — IETESTCD, IECAT, IEORRES, IESTRESC]**",
      "elapsed_s": 5.67
    },
    {
      "id": "q06",
      "category": "cross_domain",
      "question": "What is SUPPQUAL and when should supplemental qualifiers be used instead of adding variables to a domain?",
      "source_recall": 1.0,
      "source_hits": [
        "domains/SUPPQUAL/spec.md"
      ],
      "source_misses": [],
      "top5_sources": [
        "domains/SUPPQUAL/spec.md",
        "domains/SUPPQUAL/spec.md",
        "domains/SUPPQUAL/spec.md",
        "domains/SUPPQUAL/spec.md",
        "domains/SUPPQUAL/assumptions.md"
      ],
      "top5_similarities": [
        0.5533,
        0.4872,
        0.4705,
        0.4564,
        0.7409
      ],
      "fact_recall": 1.0,
      "fact_hits": [
        "QNAM",
        "QVAL",
        "non-standard"
      ],
      "fact_misses": [],
      "answer_preview": "## SUPPQUAL Definition and Purpose\n\n**SUPPQUAL** (Supplemental Qualifiers for [domain name]) is a **Relationship** class dataset model used to capture non-standard variables (NSVs) that cannot be accommodated in the standard SDTM domain datasets. **[Source: model/06_relationship_datasets.md §6.2]**\n\nThe SDTM does not allow the addition of new variables to standard domains. Therefore, the Supplemental Qualifiers special-purpose dataset model is used to capture sponsor-defined variables and their association to parent records in general-observation class datasets (Events, Findings, Interventions",
      "usage": {
        "prompt_tokens": 15737,
        "completion_tokens": 1245,
        "total_tokens": 16982
      },
      "model": "deepseek/deepseek-chat",
      "answer": "## SUPPQUAL Definition and Purpose\n\n**SUPPQUAL** (Supplemental Qualifiers for [domain name]) is a **Relationship** class dataset model used to capture non-standard variables (NSVs) that cannot be accommodated in the standard SDTM domain datasets. **[Source: model/06_relationship_datasets.md §6.2]**\n\nThe SDTM does not allow the addition of new variables to standard domains. Therefore, the Supplemental Qualifiers special-purpose dataset model is used to capture sponsor-defined variables and their association to parent records in general-observation class datasets (Events, Findings, Interventions), Demographics (DM), and Subject Visits (SV). **[Source: domains/SUPPQUAL/assumptions.md]**\n\n### Key Variables\n\n| Variable | Label | Type | Role | Core |\n|----------|-------|------|------|------|\n| QNAM | Qualifier Variable Name | Char | Topic | Req |\n| QLABEL | Qualifier Variable Label | Char | Synonym Qualifier | Req |\n| QVAL | Data Value | Char | Result Qualifier | Req |\n| QORIG | Origin | Char | Record Qualifier | Req |\n| QEVAL | Evaluator | Char | Record Qualifier | Exp (CT: C78735) |\n\n**[Source: domains/SUPPQUAL/spec.md; model/06_relationship_datasets.md §6.2]**\n\n### Structure\n\n- **One record per supplemental qualifier per related parent domain record(s)** **[Source: model/06_relationship_datasets.md §6.2]**\n- There is a **one-to-one correspondence** between a domain dataset and its Supplemental Qualifier dataset. The single SUPPQUAL dataset option from SDTMIG v3.1 was **deprecated**. Each domain's supplemental qualifiers are submitted in a separate dataset named `SUPP--` (e.g., `suppae.xpt`, `suppcm.xpt`). **[Source: chapters/ch08_relationships.md §8.4.2]**\n- A record in a SUPP-- dataset relates back to its parent record(s) via the key: **STUDYID, RDOMAIN, USUBJID, and IDVAR/IDVARVAL**. An exception is DM records, where both IDVAR and IDVARVAL are null because STUDYID, RDOMAIN, and USUBJID are sufficient to identify the unique parent record. **[Source: chapters/ch08_relationships.md §Key Rules]**\n\n---\n\n## When to Use Supplemental Qualifiers\n\nSupplemental qualifiers should be used when:\n\n1. **Sponsor-defined variables need to be captured** that are not part of the standard SDTM domain model. The SDTM does not allow adding new variables to standard domains. **[Source: domains/SUPPQUAL/assumptions.md]**\n\n2. **Capturing attributions** — interpretations or subjective classifications of observations by a specific evaluator (e.g., a flag indicating whether an observation was considered clinically significant). **[Source: domains/SUPPQUAL/assumptions.md]**\n\n3. **Secondary evaluations** — when observations have primary and secondary evaluations of specific qualifier variables. The primary evaluation goes into the standard domain dataset; the secondary evaluation goes into SUPP--. QNAM is formed by appending \"1\" to the standard domain variable name (or replacing the last character if the name is already 8 characters). **[Source: chapters/ch04_general_assumptions.md §4.5.4]**\n\n4. **Text strings exceeding 200 characters** — the first 200 characters go in the parent domain variable; each additional 200 characters go in a SUPP-- record. **[Source: chapters/ch04_general_assumptions.md §4.5.3.2]**\n\n5. **Multiple values for a non-result qualifier variable** — when a variable can have multiple values (e.g., multiple reasons for a single observation). **[Source: chapters/ch04_general_assumptions.md §4.5.3.2]**\n\n---\n\n## When NOT to Use Supplemental Qualifiers\n\nThe following data should **not** be submitted as supplemental qualifiers **[Source: chapters/ch08_relationships.md §8.4.4]**:\n\n- **Subject-level objective data** that fit in Subject Characteristics (SC; e.g., national origin, twin type)\n- **Findings interpretations** that should be added as an additional test code and result (e.g., ECG interpretation where EGTESTCD = \"INTP\")\n- **Comments** related to a record or records — these should be captured in the CO special-purpose domain\n- **Data not directly related to records in a parent domain** — these should be captured in a separate general observation class domain or special-purpose domain\n\n---\n\n## Key Rules\n\n- **All records must have a value for QVAL** — no records can be in SUPP-- with a null value for QVAL. Transposing source variables with missing/null values may generate SUPP-- records with null QVAL; these must be deleted prior to submission. **[Source: domains/SUPPQUAL/spec.md — QVAL; chapters/ch08_relationships.md §Key Rules]**\n- **QNAM cannot be longer than 8 characters**, cannot start with a number, and cannot contain characters other than letters, numbers, or underscores. **[Source: domains/SUPPQUAL/spec.md — QNAM]**\n- **QLABEL cannot be longer than 40 characters**. **[Source: chapters/ch08_relationships.md §8.4.1]**\n- **QEVAL** is used only for subjective results (assigned by a person or group). For objective data, QEVAL should be null. **[Source: domains/SUPPQUAL/spec.md — QEVAL]**\n- The combined set of values for **STUDYID, RDOMAIN, USUBJID, IDVAR, IDVARVAL, and QNAM** should be unique for every record. **[Source: domains/SUPPQUAL/assumptions.md]**",
      "elapsed_s": 11.85
    },
    {
      "id": "q07",
      "category": "cross_domain",
      "question": "Which SDTM domains use the EPOCH variable and what is its purpose?",
      "source_recall": 1.0,
      "source_hits": [
        "VARIABLE_INDEX.md"
      ],
      "source_misses": [],
      "top5_sources": [
        "VARIABLE_INDEX.md",
        "chapters/ch04_general_assumptions.md",
        "model/01_concepts_and_terms.md",
        "domains/SR/spec.md",
        "chapters/ch02_fundamentals.md"
      ],
      "top5_similarities": [
        0.5124,
        0.7004,
        11.8134,
        0.6837,
        11.0386
      ],
      "fact_recall": 1.0,
      "fact_hits": [
        "EPOCH",
        "Timing"
      ],
      "fact_misses": [],
      "answer_preview": "Based on the retrieved context, the EPOCH variable is used across multiple SDTM domains as a Timing variable. Its purpose is to identify the study epoch (e.g., \"SCREENING\", \"TREATMENT\", \"FOLLOW-UP\") associated with an observation.\n\n## Domains Using EPOCH\n\nThe following domains are explicitly documented as using the EPOCH variable:\n\n| Domain | Source |\n|--------|--------|\n| **SR** (Skin Response) | [Source: domains/SR/spec.md] |\n| **CP** (Cell Phenotype Findings) | [Source: domains/CP/spec.md] |\n| **FA** (Findings About Events or Interventions) | [Source: domains/FA/spec.md] |\n| **PP** (Pharmac",
      "usage": {
        "prompt_tokens": 14574,
        "completion_tokens": 758,
        "total_tokens": 15332
      },
      "model": "deepseek/deepseek-chat",
      "answer": "Based on the retrieved context, the EPOCH variable is used across multiple SDTM domains as a Timing variable. Its purpose is to identify the study epoch (e.g., \"SCREENING\", \"TREATMENT\", \"FOLLOW-UP\") associated with an observation.\n\n## Domains Using EPOCH\n\nThe following domains are explicitly documented as using the EPOCH variable:\n\n| Domain | Source |\n|--------|--------|\n| **SR** (Skin Response) | [Source: domains/SR/spec.md] |\n| **CP** (Cell Phenotype Findings) | [Source: domains/CP/spec.md] |\n| **FA** (Findings About Events or Interventions) | [Source: domains/FA/spec.md] |\n| **PP** (Pharmacokinetics Parameters) | [Source: domains/PP/spec.md] |\n| **PC** (Pharmacokinetics Concentrations) | [Source: domains/PC/spec.md] |\n| **EC** (Exposure as Collected) | [Source: VARIABLE_INDEX.md — EC] |\n| **EX** (Exposure) | [Source: domains/TA/assumptions.md] |\n| **DS** (Disposition) | [Source: domains/TA/assumptions.md] |\n\n## EPOCH Variable Specification\n\n- **Label:** Epoch\n- **Type:** Char\n- **Role:** Timing\n- **Core:** Perm (Permissible)\n- **Controlled Terms:** C99079\n- **CDISC Notes:** Epoch associated with the date/time of the observation. Examples: \"SCREENING\", \"TREATMENT\", \"FOLLOW-UP\". [Source: domains/SR/spec.md, domains/FA/spec.md]\n\n## Purpose and Usage Rules\n\n1. **Basis for assignment:**\n   - For **Findings class domains**, EPOCH should be based on the `--DTC` variable (date/time of the test or specimen collection). [Source: chapters/ch04_general_assumptions.md §4.1.3.1]\n   - For **Interventions or Events class domains**, EPOCH should be based on the `--STDTC` variable (start of the intervention or event). [Source: chapters/ch04_general_assumptions.md §4.1.3.1]\n\n2. **No imputation:** Sponsors should not impute EPOCH values. Assignment should be based on CRF instructions and structure where possible. If epoch cannot be determined, EPOCH should be null. [Source: chapters/ch04_general_assumptions.md §4.1.3.1]\n\n3. **Pre-study observations:** EPOCH is not applicable to interventions, events, or findings that occurred before the subject's participation in a study (including screening, which occurs before RFSTDTC). For such records, EPOCH should be null. [Source: chapters/ch04_general_assumptions.md §4.1.3.1]\n\n4. **Distinct values:** In crossover trials with multiple treatment epochs, each must be given a distinct name (e.g., not all called \"TREATMENT\"). [Source: domains/TA/assumptions.md]\n\n5. **Applicability to general observation classes:** As a Timing variable, EPOCH is permissible for use in any dataset based on a general observation class (Interventions, Events, Findings). [Source: model/02_observation_classes.md]\n\n6. **Not applicable to:** Timing variables cannot be added to SUPPQUAL datasets or RELREC. [Source: chapters/ch04_general_assumptions.md §4.1.3]",
      "elapsed_s": 8.19
    },
    {
      "id": "q08",
      "category": "cross_domain",
      "question": "How does USUBJID serve as a linking key across SDTM domains?",
      "source_recall": 1.0,
      "source_hits": [
        "domains/DM/spec.md"
      ],
      "source_misses": [],
      "top5_sources": [
        "VARIABLE_INDEX.md",
        "domains/SUPPQUAL/spec.md",
        "chapters/ch04_general_assumptions.md",
        "domains/DM/spec.md",
        "chapters/ch03_submitting_data.md"
      ],
      "top5_similarities": [
        0.4878,
        0.7075,
        10.4468,
        0.6923,
        9.9812
      ],
      "fact_recall": 1.0,
      "fact_hits": [
        "USUBJID",
        "Identifier",
        "unique"
      ],
      "fact_misses": [],
      "answer_preview": "Based on the retrieved context, **USUBJID** serves as a linking key across SDTM domains primarily as an **Identifier** variable that uniquely identifies a subject across all studies and applications. Here is how it functions across different domain types:\n\n## Definition and Core Role\n\nUSUBJID is defined as:\n\n- **Label:** Unique Subject Identifier\n- **Type:** Char\n- **Role:** Identifier\n- **Core:** Req (Required) in most domains; Exp (Expected) in RELSUB\n- **Controlled Terms:** None\n\n**[Source: domains/DM/spec.md; domains/AE/spec.md; domains/PP/spec.md; domains/CO/spec.md; domains/SUPPQUAL/spec",
      "usage": {
        "prompt_tokens": 14069,
        "completion_tokens": 946,
        "total_tokens": 15015
      },
      "model": "deepseek/deepseek-chat",
      "answer": "Based on the retrieved context, **USUBJID** serves as a linking key across SDTM domains primarily as an **Identifier** variable that uniquely identifies a subject across all studies and applications. Here is how it functions across different domain types:\n\n## Definition and Core Role\n\nUSUBJID is defined as:\n\n- **Label:** Unique Subject Identifier\n- **Type:** Char\n- **Role:** Identifier\n- **Core:** Req (Required) in most domains; Exp (Expected) in RELSUB\n- **Controlled Terms:** None\n\n**[Source: domains/DM/spec.md; domains/AE/spec.md; domains/PP/spec.md; domains/CO/spec.md; domains/SUPPQUAL/spec.md; domains/RELSPEC/spec.md; domains/RELSUB/spec.md]**\n\n**CDISC Notes:** \"Identifier used to uniquely identify a subject across all studies for all applications or submissions involving the product.\" In DM, it is further specified that \"This must be a unique value, and could be a compound identifier formed by concatenating STUDYID-SITEID-SUBJID.\" **[Source: domains/DM/spec.md]**\n\n## How USUBJID Links Across Domains\n\n### 1. As a Primary Key Component in Special-Purpose Domains\n\nUSUBJID is part of the natural key structure for special-purpose domains:\n\n| Domain | Key Structure |\n|--------|--------------|\n| DM | STUDYID, USUBJID |\n| SE | STUDYID, USUBJID, ETCD, SESTDTC |\n| SM | STUDYID, USUBJID, MIDS |\n| SV | STUDYID, USUBJID, SVTERM |\n| CO | STUDYID, USUBJID, IDVAR, COREF, COOTC |\n\n**[Source: chapters/ch03_submitting_data.md]**\n\n### 2. As a Key in General Observation Class Domains\n\nUSUBJID is a required identifier in all general observation class datasets (Interventions, Events, Findings), enabling record-level linkage across domains for the same subject. For example:\n\n- **AE (Adverse Events):** STUDYID, USUBJID, AESEQ\n- **CM (Concomitant Medications):** STUDYID, USUBJID, CMTRT, CMSTDTC\n- **AG (Procedure Agents):** STUDYID, USUBJID, AGTRT, AGSTDTC\n\n**[Source: chapters/ch03_submitting_data.md]**\n\n### 3. In Relationship Datasets\n\n- **RELREC:** USUBJID and IDVARVAL are **null** for dataset-to-dataset relationships (e.g., TU to TR), because RELREC links datasets, not individual subject records. However, within-subject relationships use USUBJID as part of the key. **[Source: chapters/ch08_relationships.md]**\n- **RELSPEC:** USUBJID is a required Identifier (Core: Req). **[Source: domains/RELSPEC/spec.md]**\n- **RELSUB:** USUBJID is Expected (Core: Exp), with the note \"Either USUBJID or POOLID must be populated.\" **[Source: domains/RELSUB/spec.md]**\n\n### 4. In Supplemental Qualifiers (SUPP--)\n\nUSUBJID is used to identify the parent record(s) to which supplemental qualifier values belong. The SUPPQUAL spec notes: \"This is the value of USUBJID in the parent record(s).\" **[Source: domains/SUPPQUAL/spec.md]**\n\n### 5. In Associated Persons (AP) Domains\n\nFor associated persons data, **APID** is used instead of USUBJID. The linking variable **RSUBJID** may be populated with the USUBJID of the related subject to establish the relationship between an associated person and a study subject. **[Source: model/04_associated_persons.md]**\n\n## Summary\n\nUSUBJID serves as the **universal subject identifier** that:\n1. Uniquely identifies a subject across all studies and submissions\n2. Forms part of the natural key in every subject-level domain\n3. Enables cross-domain record linkage (e.g., linking AE records to CM records for the same subject)\n4. Is referenced in relationship datasets (RELSPEC, RELSUB) and supplemental qualifiers (SUPP--)\n5. Is replaced by APID in associated persons domains, with RSUBJID optionally carrying the USUBJID value for linkage",
      "elapsed_s": 11.07
    },
    {
      "id": "q09",
      "category": "cross_domain",
      "question": "How are adverse events linked to concomitant medications using RELREC?",
      "source_recall": 1.0,
      "source_hits": [
        "domains/RELREC/spec.md"
      ],
      "source_misses": [],
      "top5_sources": [
        "domains/RELREC/spec.md",
        "domains/CM/spec.md",
        "domains/AE/spec.md",
        "chapters/ch08_relationships.md",
        "domains/RELREC/examples.md"
      ],
      "top5_similarities": [
        0.4612,
        0.5328,
        0.5185,
        0.6173,
        0.583
      ],
      "fact_recall": 1.0,
      "fact_hits": [
        "RELREC",
        "IDVAR",
        "IDVARVAL"
      ],
      "fact_misses": [],
      "answer_preview": "Based on the retrieved context, adverse events (AE) are linked to concomitant medications (CM) using the **RELREC** (Related Records) special-purpose dataset. This is done by creating records in RELREC that share a common **RELID** value for the related AE and CM records within the same **USUBJID**.\n\nHere is the detailed mechanism:\n\n1.  **When to use RELREC:** The AE domain assumption states that if a non-study treatment (concomitant medication) is given because of an adverse event, the treatment information is represented in the CM domain and \"linked to the AE record with RELREC\" **[Source: d",
      "usage": {
        "prompt_tokens": 16420,
        "completion_tokens": 929,
        "total_tokens": 17349
      },
      "model": "deepseek/deepseek-chat",
      "answer": "Based on the retrieved context, adverse events (AE) are linked to concomitant medications (CM) using the **RELREC** (Related Records) special-purpose dataset. This is done by creating records in RELREC that share a common **RELID** value for the related AE and CM records within the same **USUBJID**.\n\nHere is the detailed mechanism:\n\n1.  **When to use RELREC:** The AE domain assumption states that if a non-study treatment (concomitant medication) is given because of an adverse event, the treatment information is represented in the CM domain and \"linked to the AE record with RELREC\" **[Source: domains/AE/assumptions.md -- item_6]**. This is an example of an \"explicit relationship\" as described in the RELREC assumptions **[Source: domains/RELREC/assumptions.md -- overview]**.\n\n2.  **How the link is established:** A relationship is defined by adding a record to RELREC for each record to be related (one for the AE, one for the CM) and assigning a unique character identifier value for the relationship, stored in the **RELID** variable. The value of RELID must be identical for all related records within a USUBJID **[Source: domains/RELREC/assumptions.md -- overview]**.\n\n3.  **Key variables in RELREC:**\n    - **STUDYID, USUBJID:** Identify the study and subject.\n    - **RDOMAIN:** The domain code of the record in the relationship (e.g., \"AE\" or \"CM\") **[Source: domains/RELREC/assumptions.md -- overview]**.\n    - **IDVAR:** The variable used to identify the specific record within the domain (e.g., \"AESEQ\" for the AE record's sequence number, or \"CMSEQ\" for the CM record's sequence number) **[Source: domains/RELREC/assumptions.md -- overview]**.\n    - **IDVARVAL:** The value of the variable described in IDVAR (e.g., the specific sequence number like \"5\" for the AE or \"11\" for the CM) **[Source: domains/RELREC/assumptions.md -- overview]**.\n    - **RELID:** The relationship identifier that groups the related records together.\n\n4.  **Example from the context:**\n    The following example from the RELREC examples shows an AE record (AESEQ=5) related to two CM records (CMSEQ=11 and CMSEQ=12) using RELID=\"1\" **[Source: domains/RELREC/examples.md -- Peer Record Examples]**.\n\n    | Row | STUDYID | RDOMAIN | USUBJID | IDVAR | IDVARVAL | RELTYPE | RELID |\n    |-----|---------|---------|---------|-------|----------|---------|-------|\n    | 1 | EFC1234 | AE | 123456 | AESEQ | 5 | | 1 |\n    | 2 | EFC1234 | CM | 123456 | CMSEQ | 11 | | 1 |\n    | 3 | EFC1234 | CM | 123456 | CMSEQ | 12 | | 1 |\n\n5.  **Alternative using --GRPID:** If the concomitant medications are already grouped within the CM domain using a variable like **CMGRPID**, the relationship can be represented more efficiently. Instead of listing each CM record individually, the RELREC record can use `IDVAR=\"CMGRPID\"` and `IDVARVAL=\"COMBO1\"` to relate the AE to the entire group of medications **[Source: domains/RELREC/examples.md -- Peer Record Examples]**.\n\n    | Row | STUDYID | RDOMAIN | USUBJID | IDVAR | IDVARVAL | RELTYPE | RELID |\n    |-----|---------|---------|---------|-------|----------|---------|-------|\n    | 1 | EFC1234 | AE | 123456 | AESEQ | 5 | | 1 |\n    | 2 | EFC1234 | CM | 123456 | CMGRPID | COMBO1 | | 1 |\n\nIn summary, the link is made by creating a set of records in the RELREC dataset that share a common RELID, with each record pointing to a specific record in either the AE or CM domain using the RDOMAIN, IDVAR, and IDVARVAL variables.",
      "elapsed_s": 10.28
    },
    {
      "id": "q10",
      "category": "cross_domain",
      "question": "In oncology studies, how are the TR (Tumor/Lesion Results) domain and RS (Disease Response) domain linked together, and which specific identifier variables are used for each linkage direction?",
      "source_recall": 1.0,
      "source_hits": [
        "domains/TR/assumptions.md",
        "domains/TR/spec.md"
      ],
      "source_misses": [],
      "top5_sources": [
        "domains/TR/spec.md",
        "domains/RS/spec.md",
        "domains/RS/assumptions.md",
        "domains/TR/assumptions.md",
        "domains/TR/assumptions.md"
      ],
      "top5_similarities": [
        0.6207,
        0.6214,
        0.713,
        0.7055,
        0.6926
      ],
      "fact_recall": 1.0,
      "fact_hits": [
        "TRLNKID",
        "TRLNKGRP"
      ],
      "fact_misses": [],
      "answer_preview": "## TR–RS Linkage in Oncology Studies\n\nThe TR (Tumor/Lesion Results) and RS (Disease Response) domains are linked through a **RELREC dataset-to-dataset relationship** using the `--LNKGRP` variable in both domains. This is a **bidirectional linkage** that connects individual tumor/lesion measurements/assessments in TR to the response evaluation records in RS.\n\n---\n\n### Linkage Mechanism\n\n**Variable used:** `RSLNKGRP` (in RS) and `TRLNKGRP` (in TR)\n\nBoth variables serve as the grouping identifier that supports a RELREC relationship. The values in `RSLNKGRP` and `TRLNKGRP` must match to establish ",
      "usage": {
        "prompt_tokens": 15161,
        "completion_tokens": 1006,
        "total_tokens": 16167
      },
      "model": "deepseek/deepseek-chat",
      "answer": "## TR–RS Linkage in Oncology Studies\n\nThe TR (Tumor/Lesion Results) and RS (Disease Response) domains are linked through a **RELREC dataset-to-dataset relationship** using the `--LNKGRP` variable in both domains. This is a **bidirectional linkage** that connects individual tumor/lesion measurements/assessments in TR to the response evaluation records in RS.\n\n---\n\n### Linkage Mechanism\n\n**Variable used:** `RSLNKGRP` (in RS) and `TRLNKGRP` (in TR)\n\nBoth variables serve as the grouping identifier that supports a RELREC relationship. The values in `RSLNKGRP` and `TRLNKGRP` must match to establish the link.\n\n**Source:** [domains/RS/assumptions.md — item_4]  \n**Source:** [domains/TR/assumptions.md — item_2]\n\n---\n\n### Direction 1: TR → RS (Tumor Results to Response Assessment)\n\n| Domain | Variable | Role | Description |\n|--------|----------|------|-------------|\n| TR | `TRLNKGRP` | Record Qualifier | Provides a unique code for each response and associated tumor/lesion measurements/assessments. Used to relate TR records to a response assessment record in RS. |\n\n**Rule:** A RELREC relationship must exist to link the related data rows. A dataset-to-dataset link is the most appropriate mechanism. The `--LNKGRP` variable is used because `--GRPID`, `--REFID`, and `--SPID` may be used for other purposes per SDTM.\n\n**Source:** [domains/TR/assumptions.md — item_2]\n\n---\n\n### Direction 2: RS → TR (Response Assessment to Source Tumor Results)\n\n| Domain | Variable | Role | Description |\n|--------|----------|------|-------------|\n| RS | `RSLNKGRP` | Record Qualifier | Provides a link between the records in a findings domain (e.g., TR, LB) that contribute to a record in the RS domain. |\n\n**Rule:** Records should exist in the RELREC dataset to support this relationship. A RELREC relationship could also be defined using `RSLNKID` when a response evaluation or clinical classification measure relates back to another source dataset (e.g., tumor assessment in TR).\n\n**Source:** [domains/RS/assumptions.md — item_4]\n\n---\n\n### Example of the Linkage\n\nFrom the RS examples, the linkage is demonstrated:\n\n| Row | RSLNKGRP | RSTESTCD | RSTEST | RSSTRESC |\n|-----|----------|----------|--------|----------|\n| 3 | A2 | OVRLRESP | Overall Response | PR |\n| 7 | A3 | OVRLRESP | Overall Response | PD |\n\nThe `RSLNKGRP` value (e.g., \"A2\", \"A3\") would match corresponding `TRLNKGRP` values in the TR domain to link the overall response assessment to the underlying tumor measurements that contributed to that assessment.\n\n**Source:** [domains/RS/examples.md — Example 1]\n\n---\n\n### Additional Linkage: TU → TR (Tumor Identification to Tumor Results)\n\nWhile not directly TR→RS, the **TU (Tumor/Lesion Identification) domain** links to TR via `TULNKID` / `TRLNKID`, and this chain ultimately supports the RS linkage:\n\n| Domain Pair | Variable Pair | Mechanism |\n|-------------|---------------|-----------|\n| TU → TR | `TULNKID` ↔ `TRLNKID` | RELREC dataset-to-dataset link |\n| TR → RS | `TRLNKGRP` ↔ `RSLNKGRP` | RELREC dataset-to-dataset link |\n\n**Source:** [domains/TU/assumptions.md — item_2]  \n**Source:** [domains/TR/assumptions.md — item_1]\n\n---\n\n### Summary Table\n\n| Linkage Direction | Source Variable | Target Variable | Mechanism |\n|-------------------|----------------|-----------------|-----------|\n| TR → RS | `TRLNKGRP` | `RSLNKGRP` | RELREC dataset-to-dataset |\n| RS → TR | `RSLNKGRP` | `TRLNKGRP` | RELREC dataset-to-dataset |\n| TU → TR | `TULNKID` | `TRLNKID` | RELREC dataset-to-dataset |\n\n**Key point:** The `--LNKGRP` variables (not `--LNKID`) are the specific identifiers used for the TR–RS linkage. The `--LNKID` variables are used for the TU–TR linkage. Both require corresponding records in the RELREC domain.",
      "elapsed_s": 11.66
    },
    {
      "id": "q28",
      "category": "cross_domain",
      "question": "What is the FA (Findings About Events or Interventions) domain and how does it link to parent domains like AE or CM using FAOBJ?",
      "source_recall": 1.0,
      "source_hits": [
        "domains/FA/spec.md"
      ],
      "source_misses": [],
      "top5_sources": [
        "VARIABLE_INDEX.md",
        "domains/FA/spec.md",
        "domains/AE/spec.md",
        "domains/CM/spec.md",
        "domains/FA/assumptions.md"
      ],
      "top5_similarities": [
        0.5986,
        0.5916,
        0.6388,
        0.4691,
        0.6937
      ],
      "fact_recall": 1.0,
      "fact_hits": [
        "Findings About",
        "FAOBJ",
        "FATESTCD"
      ],
      "fact_misses": [],
      "answer_preview": "## FA (Findings About Events or Interventions) Domain\n\n### Overview\n\nThe FA domain is a **Findings About** subtype of the Findings observation class, used to record findings about observations in the Interventions or Events classes. **[Source: model/02_observation_classes.md]**\n\n### Variable Specification (Key Variables)\n\n| Variable | Label | Type | Role | Core | Controlled Terms |\n|----------|-------|------|------|------|-----------------|\n| FATESTCD | Findings About Test Short Name | Char | Topic | Req | C101832 |\n| FATEST | Findings About Test Name | Char | Synonym Qualifier | Req | C101833",
      "usage": {
        "prompt_tokens": 16790,
        "completion_tokens": 1314,
        "total_tokens": 18104
      },
      "model": "deepseek/deepseek-chat",
      "answer": "## FA (Findings About Events or Interventions) Domain\n\n### Overview\n\nThe FA domain is a **Findings About** subtype of the Findings observation class, used to record findings about observations in the Interventions or Events classes. **[Source: model/02_observation_classes.md]**\n\n### Variable Specification (Key Variables)\n\n| Variable | Label | Type | Role | Core | Controlled Terms |\n|----------|-------|------|------|------|-----------------|\n| FATESTCD | Findings About Test Short Name | Char | Topic | Req | C101832 |\n| FATEST | Findings About Test Name | Char | Synonym Qualifier | Req | C101833 |\n| FAOBJ | Object of the Observation | Char | Record Qualifier | Req | — |\n| FASEQ | Sequence Number | Num | Identifier | Req | — |\n| FAORRES | Result or Finding in Original Units | Char | Result Qualifier | Exp | — |\n| FASTRESC | Character Result/Finding in Std Format | Char | Result Qualifier | Exp | — |\n| FASTRESN | Numeric Result/Finding in Standard Units | Num | Result Qualifier | Perm | — |\n| FASTAT | Completion Status | Char | Record Qualifier | Perm | C66789 |\n| FADTC | Date/Time of Collection | Char | Timing | Exp | ISO 8601 |\n\n**[Source: VARIABLE_INDEX.md — FA section]**\n\n### Class Designation\n\nFA is classified as **Findings About**, a subtype of the Findings observation class. The SR (Skin Response) domain shares this same class designation. **[Source: domains/FA/spec.md — Related Domains]**\n\n---\n\n## How FAOBJ Links to Parent Domains\n\n### Mechanism\n\n**FAOBJ** (Object of the Observation) is the variable unique to the Findings About structure. It describes the event or intervention whose property is being measured in FATESTCD/FATEST. **[Source: model/02_observation_classes.md]**\n\nIn conjunction with FATESTCD, FAOBJ describes what the topic of the observation is; therefore, **both are required to be populated for every record**. FATESTCD describes the measurement/evaluation and FAOBJ describes the event or intervention that the measurement/evaluation is about. **[Source: model/02_observation_classes.md]**\n\n### How FAOBJ Values Are Derived\n\nThe values in FAOBJ are typically the **coded terms** (--DECOD values) from the parent domain record:\n\n- **For AE parent records**: FAOBJ contains the value from **AEDECOD** (e.g., \"NAUSEA\", \"DIARRHEA\", \"HEADACHE\") **[Source: domains/FA/examples.md — Example 6]**\n- **For CM parent records**: FAOBJ would contain the value from **CMDECOD** (the coded medication name)\n- **For PR parent records**: FAOBJ would contain the value from **PRTRT** or the coded procedure term\n\n### Example: FAOBJ Linking to AE\n\nIn Example 6 (severity assessments over time):\n\n| FATESTCD | FATEST | FAOBJ | FAORRES | FASPID |\n|----------|--------|-------|---------|--------|\n| SEV | Severity/Intensity | Nausea | MILD | 1 |\n| SEV | Severity/Intensity | Nausea | MODERATE | 1 |\n| SEV | Severity/Intensity | Diarrhea | MILD | 2 |\n\nHere, FAOBJ=\"NAUSEA\" matches AEDECOD in the AE domain, and FASPID matches AESPID to link the FA records to specific AE records. **[Source: domains/FA/examples.md — Example 6]**\n\n### Example: FAOBJ for Prespecified AEs\n\nIn Example 4 (occurrence of prespecified AEs):\n\n| FATESTCD | FATEST | FAOBJ | FAORRES |\n|----------|--------|-------|---------|\n| OCCUR | Occurrence Indicator | Headache | Y |\n| OCCUR | Occurrence Indicator | Respiratory Infection | N |\n| OCCUR | Occurrence Indicator | Nausea | NOT DONE |\n\nFAOBJ contains the prespecified AE term name. When FAORRES=\"Y\", a corresponding AE record exists with AEPRESP=\"Y\". **[Source: domains/FA/examples.md — Example 4]**\n\n---\n\n## When to Use FA (Three Criteria)\n\nPer Section 6.4.1, FA should be used when:\n\n1. **Criterion 1**: Data or observations that have **different timing from an associated event or intervention as a whole** (e.g., severity assessed at each visit for an ongoing AE)\n2. **Criterion 2**: An observation about an event or intervention which requires **more than 1 variable** for its representation (e.g., rash diameter + unit + lesion counts)\n3. **Criterion 3**: Data that indicate the **occurrence of prespecified AEs** (solicited at each visit)\n\n**[Source: domains/FA/assumptions.md — item_6]**\n\n---\n\n## Related Domains\n\nFA can link to the following parent domains:\n\n| Parent Domain | Relationship |\n|---------------|--------------|\n| AE | Findings about adverse events |\n| CM | Findings about concomitant medications |\n| PR | Findings about procedures |\n| EX | Findings about exposure |\n| EC | Findings about exposure as collected |\n| ML | Findings about meals |\n| SU | Findings about substance use |\n\n**[Source: domains/FA/spec.md — Related Domains]**\n\n---\n\n## Key Restrictions\n\n- The following qualifiers should **generally not be used** in FA: --BODSYS, --MODIFY, --SEV, --TOXGR **[Source: domains/FA/assumptions.md — item_6]**\n- When FATESTCD values match variable names from parent domains (e.g., SEV, OCCUR, TOXGR), the FATEST should use the corresponding variable label **[Source: model/02_observation_classes.md]**\n- FAOBJ is **Required** (Core: Req) — every FA record must specify what event or intervention it is about **[Source: domains/FA/spec.md — FAOBJ]**",
      "elapsed_s": 14.53
    },
    {
      "id": "q29",
      "category": "cross_domain",
      "question": "How do the four Trial Design domains TA (Trial Arms), TE (Trial Elements), TV (Trial Visits), and TI (Trial Inclusion/Exclusion) work together to define a study design?",
      "source_recall": 1.0,
      "source_hits": [
        "domains/TA/assumptions.md",
        "domains/TE/assumptions.md"
      ],
      "source_misses": [],
      "top5_sources": [
        "domains/TA/spec.md",
        "domains/TE/spec.md",
        "domains/TV/spec.md",
        "domains/TE/assumptions.md",
        "domains/TA/assumptions.md"
      ],
      "top5_similarities": [
        0.7568,
        0.7352,
        0.7534,
        0.7359,
        0.7245
      ],
      "fact_recall": 1.0,
      "fact_hits": [
        "TA",
        "TE",
        "TV",
        "TI"
      ],
      "fact_misses": [],
      "answer_preview": "# How TA, TE, TV, and TI Work Together to Define a Study Design\n\nThe four Trial Design domains form a hierarchical, interconnected model that describes a clinical trial's planned conduct. Here is how they relate:\n\n## 1. TE (Trial Elements) — The Building Blocks\n\nTE defines the **atomic time periods** (elements) that serve a purpose in the trial. Each element appears once in TE, regardless of how many times it is reused across arms.\n\n**Key variables:** ETCD (Element Code), ELEMENT (Description), TESTRL (Start Rule), TEENRL (End Rule), TEDUR (Planned Duration)\n\n> *\"An element is a building block",
      "usage": {
        "prompt_tokens": 14611,
        "completion_tokens": 1075,
        "total_tokens": 15686
      },
      "model": "deepseek/deepseek-chat",
      "answer": "# How TA, TE, TV, and TI Work Together to Define a Study Design\n\nThe four Trial Design domains form a hierarchical, interconnected model that describes a clinical trial's planned conduct. Here is how they relate:\n\n## 1. TE (Trial Elements) — The Building Blocks\n\nTE defines the **atomic time periods** (elements) that serve a purpose in the trial. Each element appears once in TE, regardless of how many times it is reused across arms.\n\n**Key variables:** ETCD (Element Code), ELEMENT (Description), TESTRL (Start Rule), TEENRL (End Rule), TEDUR (Planned Duration)\n\n> *\"An element is a building block for creating study cells, and an arm is composed of study cells.\"* **[Source: domains/TE/assumptions.md]**\n\n**Example elements:** Screen, Run-In, Placebo, Drug A, Drug B\n\n## 2. TA (Trial Arms) — The Ordered Sequence\n\nTA defines **each planned arm** as an ordered sequence of elements. It connects elements into complete subject paths through the trial.\n\n**Key variables:** ARMCD/ARM (Arm), TAETORD (Order within Arm), ETCD/ELEMENT (referencing TE), TABRANCH (Branch rules), TATRANS (Transition rules), EPOCH\n\n> *\"An arm is a planned path through the trial. This path covers the entire time of the trial.\"* **[Source: domains/TA/assumptions.md]**\n\n**How TA references TE:** TA uses `ETCD` to reference elements defined in TE. The same element (e.g., \"Screen\") can appear in multiple arms and multiple positions within an arm. **[Source: model/05_study_level_data.md]**\n\n**Example:** In a 3-arm parallel trial, TA contains 3 arms × 3 elements = 9 records, while TE contains only 5 unique elements. **[Source: domains/TE/assumptions.md]**\n\n## 3. TV (Trial Visits) — The Data Collection Schedule\n\nTV defines **planned visits** where data collection occurs, referencing the epochs (and sometimes elements) defined in TA.\n\n**Key variables:** VISITNUM, VISIT, TVSTRL (Start Rule), TVENRL (End Rule)\n\n> *\"Visits can span epoch transitions... the transition event that marks the beginning of the run-in epoch occurs during visit 2.\"* **[Source: domains/TV/examples.md]**\n\n**How TV references TA:** TV start/end rules reference epochs (e.g., \"Start of Screen Epoch\", \"30 minutes after start of Treatment Epoch\"). When epochs span multiple elements, TV rules may need to reference elements and TAETORD. **[Source: domains/TV/examples.md]**\n\n## 4. TI (Trial Inclusion/Exclusion) — Subject Eligibility\n\nTI defines **all inclusion and exclusion criteria** for the trial, which determine which subjects can enter the trial design defined by TA/TE/TV.\n\n**Key variables:** IETESTCD, IETEST, IECAT, TIRL\n\n> *\"TI contains all the inclusion and exclusion criteria for the trial, and thus provides information that may not be present in the subject-level data.\"* **[Source: domains/TI/assumptions.md]**\n\n## How They Interconnect\n\n```\nTE (Elements) ──referenced by──→ TA (Arms) ──defines epochs──→ TV (Visits)\n                                    │\n                                    └── subjects must satisfy ──→ TI (Eligibility)\n```\n\n1. **TE → TA:** TE defines reusable elements; TA assembles them into ordered arm sequences using `ETCD` as the foreign key. **[Source: model/05_study_level_data.md]**\n\n2. **TA → TV:** TA defines epochs (e.g., Screening, Run-In, Treatment); TV visits are scheduled relative to epoch boundaries. **[Source: domains/TV/examples.md]**\n\n3. **TI → All:** TI defines who can enter the trial; the IE domain (subject-level) records which criteria were not met. **[Source: domains/TI/assumptions.md]**\n\n4. **All are Trial Design domains:** TA, TD, TE, TI, TM, TS, and TV share the same class (Trial Design). **[Source: domains/TA/spec.md, domains/TE/spec.md, domains/TV/spec.md, domains/TI/spec.md]**\n\n## Practical Example (from TA Example 1)\n\nFor a 3-arm parallel trial:\n\n- **TE** defines 5 unique elements: Screen, Run-In, Placebo, Drug A, Drug B\n- **TA** defines 3 arms, each with 3 elements in order: Screen → Run-In → (Placebo | Drug A | Drug B)\n- **TV** defines 5 visits, with Visit 2 spanning Screen→Run-In transition and Visit 3 spanning Run-In→Treatment transition\n- **TI** defines the inclusion/exclusion criteria that subjects must meet before entering the Screen element\n\n**[Source: domains/TA/examples.md, domains/TV/examples.md]**",
      "elapsed_s": 13.69
    },
    {
      "id": "q30",
      "category": "cross_domain",
      "question": "What is the CO (Comments) domain and how does it reference records in other SDTM domains? Describe the RDOMAIN and IDVAR mechanism.",
      "source_recall": 1.0,
      "source_hits": [
        "domains/CO/spec.md",
        "domains/CO/assumptions.md"
      ],
      "source_misses": [],
      "top5_sources": [
        "VARIABLE_INDEX.md",
        "domains/CO/spec.md",
        "chapters/ch08_relationships.md",
        "domains/CO/assumptions.md",
        "domains/CO/assumptions.md"
      ],
      "top5_similarities": [
        0.569,
        0.6492,
        0.6728,
        0.6876,
        0.7154
      ],
      "fact_recall": 1.0,
      "fact_hits": [
        "COVAL",
        "RDOMAIN",
        "IDVAR"
      ],
      "fact_misses": [],
      "answer_preview": "## CO (Comments) Domain Overview\n\nThe **Comments (CO)** domain is a **Special-Purpose** domain used to capture unstructured free-text comments that are not part of normal domain data. Comments are normally supplied by a principal investigator but may also be collected from other sources such as central reviewers. **[Source: model/03_special_purpose_domains.md]**\n\n### Structure\n- **One record per comment per subject** (or per study)\n- Contains **15 variables** in the SDTM v2.0 model\n- Key variables include: STUDYID, DOMAIN, RDOMAIN, USUBJID, COSEQ, IDVAR, IDVARVAL, COREF, COVAL, COEVAL, COEVALI",
      "usage": {
        "prompt_tokens": 15172,
        "completion_tokens": 1152,
        "total_tokens": 16324
      },
      "model": "deepseek/deepseek-chat",
      "answer": "## CO (Comments) Domain Overview\n\nThe **Comments (CO)** domain is a **Special-Purpose** domain used to capture unstructured free-text comments that are not part of normal domain data. Comments are normally supplied by a principal investigator but may also be collected from other sources such as central reviewers. **[Source: model/03_special_purpose_domains.md]**\n\n### Structure\n- **One record per comment per subject** (or per study)\n- Contains **15 variables** in the SDTM v2.0 model\n- Key variables include: STUDYID, DOMAIN, RDOMAIN, USUBJID, COSEQ, IDVAR, IDVARVAL, COREF, COVAL, COEVAL, COEVALID, CODTC, CODY **[Source: model/03_special_purpose_domains.md]**\n\n### Variable Definitions (Selected)\n\n| Variable | Label | Type | Role | Core | Controlled Terms |\n|----------|-------|------|------|------|-----------------|\n| COSEQ | Sequence Number | Num | Identifier | Req | — |\n| COREF | Comment Reference | Char | Record Qualifier | Perm | — |\n| COVAL | Comment | Char | Topic | Req | — |\n| COEVAL | Evaluator | Char | Record Qualifier | Perm | C78735 |\n| COEVALID | Evaluator Identifier | Char | Record Qualifier | Perm | C96777 |\n| CODTC | Date/Time of Comment | Char | Timing | Perm | ISO 8601 datetime or interval |\n| CODY | Study Day of Comment | Num | Timing | Perm | — |\n\n**[Source: VARIABLE_INDEX.md — CO]**\n\n---\n\n## RDOMAIN and IDVAR Mechanism\n\nThe CO domain uses the **same key structure** as Supplemental Qualifiers (SUPP--) to identify related parent records. The key variables are: **STUDYID, RDOMAIN, USUBJID, IDVAR, and IDVARVAL**. **[Source: chapters/ch08_relationships.md §8.5]**\n\n### Three Levels of Relationship\n\nThe CO dataset accommodates **3 sources of comments**, determined by how RDOMAIN, IDVAR, and IDVARVAL are populated: **[Source: domains/CO/assumptions.md — item_3]**\n\n#### 1. Comments unrelated to any specific domain or parent record\n- **RDOMAIN** = null\n- **IDVAR** = null\n- **IDVARVAL** = null\n- **CODTC** should be populated if captured\n- *Example:* A comment collected on a separate comments page\n\n#### 2. Comments related to a domain but not to specific parent record(s)\n- **RDOMAIN** = DOMAIN code of the parent domain (e.g., \"PE\", \"AE\")\n- **IDVAR** = null\n- **IDVARVAL** = null\n- **CODTC** should be populated if captured\n- *Example:* A comment collected at the bottom of the PE page for Visit 7, without indication of specific records\n\n#### 3. Comments related to a specific parent record or group of parent records\n- **RDOMAIN** = DOMAIN code of the parent record(s)\n- **IDVAR** = key variable name of the parent record (e.g., \"AESEQ\", \"EXGRPID\", \"VSGRPID\")\n- **IDVARVAL** = value of the variable described in IDVAR (e.g., \"7\", \"COMBO1\", \"VS2\")\n- **CODTC** should be **null** because the timing of the parent record(s) is inherited by the comment record\n\n### IDVAR Usage Examples\n\n| IDVAR Value | IDVARVAL Example | Meaning |\n|-------------|------------------|---------|\n| AESEQ | 7 | Comment relates to a single AE record with AESEQ=7 |\n| EXGRPID | COMBO1 | Comment relates to multiple EX records grouped by EXGRPID=\"COMBO1\" |\n| VSGRPID | VS2 | Comment relates to multiple VS records grouped by VSGRPID=\"VS2\" |\n| VISITNUM | 4 | Comment relates to a specific visit (when RDOMAIN=\"SV\") |\n\n**[Source: domains/CO/examples.md — Example 1]**\n\n### Additional Notes\n\n- **COREF** can be used to capture additional information about the comment relationship (e.g., CRF page number or name) that cannot be represented using RDOMAIN, IDVAR, and IDVARVAL alone. **[Source: chapters/ch08_relationships.md §8.5]**\n- **Timing variables** (e.g., VISITNUM, VISIT) may be added to the CO domain. **[Source: chapters/ch08_relationships.md §8.5]**\n- A single comment may only be related to a group of records in **1 domain** (RDOMAIN can have only 1 value). If a single comment relates to records in multiple domains, the comment may need to be repeated in CO. **[Source: chapters/ch08_relationships.md §8.5]**\n- When comment text exceeds **200 characters**, the first 200 characters go in COVAL, the next 200 in COVAL1, and so on (COVALn). **[Source: domains/CO/assumptions.md — item_4]**\n- Comments should **not** be submitted as supplemental qualifiers; they belong in the CO domain. **[Source: chapters/ch08_relationships.md §8.4.4]**",
      "elapsed_s": 12.16
    },
    {
      "id": "q31",
      "category": "cross_domain",
      "question": "How are the EC (Exposure as Collected) and EX (Exposure) domains different in purpose, and when should each be used?",
      "source_recall": 1.0,
      "source_hits": [
        "domains/EC/assumptions.md"
      ],
      "source_misses": [],
      "top5_sources": [
        "domains/EC/spec.md",
        "domains/EX/spec.md",
        "domains/EX/assumptions.md",
        "domains/EC/assumptions.md",
        "domains/EX/assumptions.md"
      ],
      "top5_similarities": [
        0.5814,
        0.5962,
        0.7328,
        0.7317,
        0.5907
      ],
      "fact_recall": 1.0,
      "fact_hits": [
        "collected",
        "EX",
        "EC"
      ],
      "fact_misses": [],
      "answer_preview": "## EC vs EX: Purpose and Usage\n\n### Core Distinction\n\n**EC (Exposure as Collected)** represents protocol-specified study treatment administrations **as they are actually collected** from the source (e.g., CRF, dispensing log). The unit of measurement is the collected unit (e.g., tablets, mL), which may differ from the protocol-specified unit.\n\n**EX (Exposure)** represents study treatment administrations **in the protocol-specified unit** (e.g., mg, mg/kg). EX is recognized in most cases as a **derived dataset**, where EXDOSU reflects the protocol-specified unit per study treatment. **[Source: ",
      "usage": {
        "prompt_tokens": 14279,
        "completion_tokens": 1031,
        "total_tokens": 15310
      },
      "model": "deepseek/deepseek-chat",
      "answer": "## EC vs EX: Purpose and Usage\n\n### Core Distinction\n\n**EC (Exposure as Collected)** represents protocol-specified study treatment administrations **as they are actually collected** from the source (e.g., CRF, dispensing log). The unit of measurement is the collected unit (e.g., tablets, mL), which may differ from the protocol-specified unit.\n\n**EX (Exposure)** represents study treatment administrations **in the protocol-specified unit** (e.g., mg, mg/kg). EX is recognized in most cases as a **derived dataset**, where EXDOSU reflects the protocol-specified unit per study treatment. **[Source: domains/EX/assumptions.md -- item_1b]**\n\n---\n\n### When to Use EC\n\nEC **should** be used when collected exposure information cannot or should not be directly represented in EX. Specific examples include:\n\n- Administrations collected in **tablets** when the protocol-specified unit is **mg**\n- Administrations collected in **mL** when the protocol-specified unit is **mg/kg**\n- Any case where the collected unit differs from the analysis unit\n\n**[Source: domains/EC/assumptions.md -- item_1a]**\n\nEC is **optional** (at sponsor's discretion) only if the entire EC dataset is an exact duplicate of the entire EX dataset. **[Source: domains/EC/assumptions.md -- item_1b]**\n\nCollected exposure log data points descriptive of administrations typically reflect amounts at the **product-level** (e.g., number of tablets, number of mL). **[Source: domains/EC/assumptions.md -- item_1c]**\n\nProduct accountability details (e.g., amount dispensed, amount returned) are represented in the **DA** domain, **not** in EC. **[Source: domains/EC/assumptions.md -- item_1a]**\n\n---\n\n### When to Use EX\n\nEX is **required** for all studies that include protocol-specified study treatment. **[Source: domains/EX/assumptions.md -- item_1c]**\n\nEX should contain **1 record per constant-dosing interval per subject**. The constant-dosing interval is sponsor-defined and may include any period of time described in terms of a known treatment given at a consistent dose, frequency, infusion rate, etc. **[Source: domains/EX/assumptions.md -- item_1d]**\n\nCommon methods for determining exposure (from most direct to least direct):\n1. Derived from actual observation of administration by the investigator\n2. Derived from automated dispensing device that records administrations\n3. Derived from subject recall\n4. Derived from product accountability data\n5. Derived from the protocol\n\n**[Source: domains/EX/assumptions.md -- item_1c]**\n\nTreatments that are **not protocol-specified** should be represented in **CM** (Concomitant/Prior Medications) or another Interventions domain, **not** in EX. **[Source: domains/EX/assumptions.md -- item_1a]**\n\n---\n\n### Relationship Between EC and EX\n\nWhen both EC and EX are implemented, the relationship between them can be described in **RELREC** when it should be defined. EX derivations must be described in the **Define-XML** document. **[Source: domains/EC/assumptions.md -- item_6; domains/EX/assumptions.md -- item_5]**\n\nWhen EC is implemented with EX:\n- **EXVAMT and EXVAMTU** would **not** be used in EX; collected values instead are represented in **ECDOSE and ECDOSU** (and ECVAMT and ECVAMTU as needed). **[Source: domains/EX/assumptions.md -- item_6c]**\n\n---\n\n### Practical Example\n\nFrom the examples, a study with weekly infusions of Drug Z 10 mg/kg:\n\n- **EC** records show both **intended doses** (in mg/kg, with ECMOOD = \"SCHEDULED\") and **actual administered amounts** (in mL, with ECMOOD = \"PERFORMED\"), plus concentration in mg/mL\n- **EX** records show only the **actual doses administered** in the protocol-specified unit (mg/kg), with no record for doses that were not given\n\n**[Source: domains/EX/examples.md -- Example 7]**\n\n---\n\n### Summary Table\n\n| Aspect | EC | EX |\n|--------|----|----|\n| **Purpose** | Collected data as-is | Derived data in protocol-specified unit |\n| **Unit** | Collected unit (tablets, mL) | Protocol-specified unit (mg, mg/kg) |\n| **Nature** | Source data | Derived dataset |\n| **Required?** | Optional if identical to EX | Required for protocol-specified treatment |\n| **Records** | Per collected administration | Per constant-dosing interval |\n| **Missed doses** | Can include (ECOCCUR = \"N\") | Generally not included |\n| **Class** | Interventions | Interventions |",
      "elapsed_s": 11.22
    },
    {
      "id": "q32",
      "category": "cross_domain",
      "question": "How is VISIT and VISITNUM used consistently across observation-class domains, and what role does the SV (Subject Visits) domain play in tracking actual visit dates?",
      "source_recall": 1.0,
      "source_hits": [
        "domains/SV/spec.md",
        "domains/SV/assumptions.md"
      ],
      "source_misses": [],
      "top5_sources": [
        "VARIABLE_INDEX.md",
        "domains/SV/spec.md",
        "model/03_special_purpose_domains.md",
        "chapters/ch04_general_assumptions.md",
        "domains/SV/assumptions.md"
      ],
      "top5_similarities": [
        0.6554,
        0.6543,
        0.7044,
        0.6665,
        0.6646
      ],
      "fact_recall": 1.0,
      "fact_hits": [
        "VISIT",
        "VISITNUM",
        "SV"
      ],
      "fact_misses": [],
      "answer_preview": "## VISIT and VISITNUM Usage Across Observation-Class Domains\n\n### VISITNUM — Consistent Definition and Role\n\nVISITNUM is defined consistently across all observation-class domains (Interventions, Events, and Findings) with the same Label, Type, Role, and Core:\n\n- **Label:** Visit Number\n- **Type:** Num\n- **Role:** Timing\n- **Core:** Exp (Expected)\n- **Controlled Terms:** None (free numeric)\n- **CDISC Notes:** \"Clinical encounter number. Numeric version of VISIT, used for sorting.\"\n\nThis definition appears identically in domains such as:\n- **FA** (Findings About) — Order 24, Role Timing, Core Ex",
      "usage": {
        "prompt_tokens": 14386,
        "completion_tokens": 1489,
        "total_tokens": 15875
      },
      "model": "deepseek/deepseek-chat",
      "answer": "## VISIT and VISITNUM Usage Across Observation-Class Domains\n\n### VISITNUM — Consistent Definition and Role\n\nVISITNUM is defined consistently across all observation-class domains (Interventions, Events, and Findings) with the same Label, Type, Role, and Core:\n\n- **Label:** Visit Number\n- **Type:** Num\n- **Role:** Timing\n- **Core:** Exp (Expected)\n- **Controlled Terms:** None (free numeric)\n- **CDISC Notes:** \"Clinical encounter number. Numeric version of VISIT, used for sorting.\"\n\nThis definition appears identically in domains such as:\n- **FA** (Findings About) — Order 24, Role Timing, Core Exp **[Source: domains/FA/spec.md]**\n- **AG** (Procedure Agents, Interventions) — Order 26, Role Timing, Core Exp **[Source: domains/AG/spec.md]**\n- **PE** (Physical Examination, Findings) — Order 24, Role Timing, Core Exp **[Source: domains/PE/spec.md]**\n\n### VISIT — Consistent Definition\n\nVISIT is also consistent across domains:\n\n- **Label:** Visit Name\n- **Type:** Char\n- **Role:** Timing\n- **Core:** Perm (Permissible)\n- **CDISC Notes:** \"1. Protocol-defined description of clinical encounter. 2. May be used in addition to VISITNUM and/or VISITDY.\"\n\n**[Source: domains/AG/spec.md]**\n\n### Key Usage Rules\n\n1. **One-to-one relationship between VISIT and VISITNUM** — There must be a one-to-one relationship between VISIT and VISITNUM for planned visits. **[Source: chapters/ch04_general_assumptions.md §4.4.5]**\n\n2. **Planned visits must use TV values** — For planned visits, values of VISIT, VISITNUM, and VISITDY must be those defined in the Trial Visits (TV) dataset. **[Source: chapters/ch04_general_assumptions.md §4.4.5]**\n\n3. **Unplanned visits** — Any values of VISITNUM that appear in subject-level datasets that are not in the TV dataset are assumed to correspond to unplanned visits. **[Source: domains/TV/assumptions.md item_6]**\n\n4. **VISITDY restriction** — VISITDY must **not** be populated for unplanned visits; the actual study day of an unplanned visit belongs in a `--DY` variable. **[Source: chapters/ch04_general_assumptions.md §4.4.5]**\n\n5. **Unplanned visit VISITNUM assignment** — The easiest method is to assign the same value (e.g., 99) to all unplanned visits, though this provides no chronological sorting. More sophisticated methods require knowing all unplanned visits for a subject. **[Source: chapters/ch04_general_assumptions.md §4.4.5]**\n\n---\n\n## Role of the SV (Subject Visits) Domain\n\n### Structure and Purpose\n\n- **Class:** Special Purpose\n- **Structure:** One record per actual or planned visit per subject\n- **Primary Keys:** STUDYID, USUBJID, SVTERM **[Source: chapters/ch03_submitting_data.md §3.2.1]**\n\nThe SV dataset provides a summary of a subject's visits over the course of their participation in a study. Comparison of an individual subject's SV dataset with the TV dataset (planned visits) supports the identification of planned but not completed visits. **[Source: domains/SV/assumptions.md]**\n\n### Actual Visit Date Tracking\n\nSV captures **actual** visit dates through two timing variables:\n\n| Variable | Label | Type | Role | Core |\n|----------|-------|------|------|------|\n| **SVSTDTC** | Start Date/Time of Observation | Char | Timing | Exp |\n| **SVENDTC** | End Date/Time of Observation | Char | Timing | Exp |\n| **SVSTDY** | Study Day of Start of Observation | Num | Timing | Perm |\n| **SVENDY** | Study Day of End of Observation | Num | Timing | Perm |\n\n**[Source: model/03_special_purpose_domains.md; domains/SV/spec.md]**\n\n### Key SV-Specific Variables\n\n| Variable | Label | Role | Core | Notes |\n|----------|-------|------|------|-------|\n| **SVPRESP** | Pre-specified | Variable Qualifier | Exp | Controlled by C66742 (NY) |\n| **SVOCCUR** | Occurrence | Record Qualifier | Exp | Controlled by C66742 (NY) |\n| **SVREASOC** | Reason for Occur Value | Record Qualifier | Perm | Free text |\n| **SVCNTMOD** | Contact Mode | Record Qualifier | Perm | Controlled by C171445 |\n| **SVEPCHGI** | Epi/Pandemic Related Change Indicator | Record Qualifier | Perm | Controlled by C66742 (NY) |\n| **SVUPDES** | Description of Unplanned Visit | Record Qualifier | Perm | Free text |\n\n**[Source: domains/SV/spec.md]**\n\n### How SV Relates to Observation-Class Domains\n\n1. **Planned vs. Actual Comparison** — Comparison of SVSTDY and SVENDY to VISIT and/or VISITDY can highlight departures from the planned timing of visits. **[Source: domains/SV/assumptions.md]**\n\n2. **Unplanned Visit Handling** — Records for unplanned visits should be included in the SV dataset. SVUPDES can be populated with a description of the reason for the unplanned visit. If data from an encounter are included in any domain for which VISITNUM is included, the encounter should generally be treated as a visit and included in SV. **[Source: domains/SV/assumptions.md item_6]**\n\n3. **Consistency with TV** — The method for deriving SV values should be consistent with the visit definitions in the TV dataset. **[Source: domains/SV/assumptions.md]**\n\n4. **VISITNUM as the Link** — VISITNUM serves as the common key linking SV (actual visit dates) to observation-class domains (data collected at those visits). For planned visits, VISITNUM values in SV must match those in TV; for unplanned visits, VISITNUM values are assigned per sponsor practice and must be consistent across all domains. **[Source: chapters/ch04_general_assumptions.md §4.4.5]**\n\n---\n\n## Summary\n\nVISITNUM and VISIT are **Timing role** variables used consistently across all Interventions, Events, and Findings domains with identical definitions (Label, Type, Role, Core). The SV domain plays a complementary role by tracking **actual** visit start/end dates (SVSTDTC, SVENDTC) and study days (SVSTDY, SVENDY) for each subject, enabling comparison against the planned schedule in TV. VISITNUM serves as the common identifier linking SV records to observation-class domain records, with unplanned visits requiring special handling for VISITNUM assignment and VISITDY exclusion.",
      "elapsed_s": 15.41
    },
    {
      "id": "q33",
      "category": "cross_domain",
      "question": "What is the RELSPEC domain and how does it define relationships between datasets at the study level, as opposed to RELREC which links individual records?",
      "source_recall": 1.0,
      "source_hits": [
        "domains/RELSPEC/spec.md"
      ],
      "source_misses": [],
      "top5_sources": [
        "domains/RELSPEC/spec.md",
        "domains/RELREC/spec.md",
        "domains/RELREC/assumptions.md",
        "chapters/ch08_relationships.md",
        "chapters/ch08_relationships.md"
      ],
      "top5_similarities": [
        0.5814,
        0.6533,
        0.7707,
        0.7621,
        0.7252
      ],
      "fact_recall": 1.0,
      "fact_hits": [
        "RELSPEC",
        "RELREC"
      ],
      "fact_misses": [],
      "answer_preview": "# RELSPEC Domain Overview\n\n## What is RELSPEC?\n\n**RELSPEC** (Related Specimens) is a **Relationship** class dataset used to describe relationships between **specimens**, enabling representation of specimen lineage (e.g., parent specimen to derived aliquots or processed specimens). **[Source: model/06_relationship_datasets.md]**\n\n### Variable Specification\n\n| # | Variable | Label | Type | Role | Core | Notes |\n|---|----------|-------|------|------|------|-------|\n| 1 | STUDYID | Study Identifier | Char | Identifier | Req | |\n| 2 | USUBJID | Unique Subject Identifier | Char | Identifier | Req | ",
      "usage": {
        "prompt_tokens": 15594,
        "completion_tokens": 1100,
        "total_tokens": 16694
      },
      "model": "deepseek/deepseek-chat",
      "answer": "# RELSPEC Domain Overview\n\n## What is RELSPEC?\n\n**RELSPEC** (Related Specimens) is a **Relationship** class dataset used to describe relationships between **specimens**, enabling representation of specimen lineage (e.g., parent specimen to derived aliquots or processed specimens). **[Source: model/06_relationship_datasets.md]**\n\n### Variable Specification\n\n| # | Variable | Label | Type | Role | Core | Notes |\n|---|----------|-------|------|------|------|-------|\n| 1 | STUDYID | Study Identifier | Char | Identifier | Req | |\n| 2 | USUBJID | Unique Subject Identifier | Char | Identifier | Req | |\n| 3 | REFID | Reference ID | Char | Identifier | Req | C82531 |\n| 4 | SPEC | Specimen Type | Char | Variable Qualifier (REFID) | Exp | C70713 |\n| 5 | PARENT | Specimen Parent | Char | Identifier | Exp | Identifies the REFID of the parent of a specimen to support tracking its genealogy |\n| 6 | LEVEL | Specimen Level | Num | Variable Qualifier (REFID) | Exp | Identifies the generation number of the sample where the collected sample is considered the first generation |\n\n**[Source: model/06_relationship_datasets.md]**\n\n---\n\n## Key Distinction: RELSPEC vs. RELREC\n\n### RELSPEC — Specimen Lineage Only\n\n- **Purpose:** Maintains relationships **between specimens** (parent-child lineage, e.g., whole blood → plasma aliquot)\n- **Scope:** Does **not** manage relationships between any other datasets or domains **[Source: domains/RELSPEC/assumptions.md, item 1]**\n- **Structure:** One record per specimen identifier per subject **[Source: model/06_relationship_datasets.md]**\n- **Variables:** Does **not** require additional variables such as those used in RELREC (e.g., no RDOMAIN, IDVAR, IDVARVAL, RELID, RELTYPE) **[Source: domains/RELSPEC/assumptions.md, item 2]**\n- **Subject-level:** Yes (subject-level data) **[Source: model/06_relationship_datasets.md]**\n\n### RELREC — Record/Dataset Relationships\n\n- **Purpose:** Links records within a domain, across domains, or between entire datasets **[Source: model/06_relationship_datasets.md]**\n- **Scope:** Can relate peer records (subject-level) **or** entire datasets (study-level, with USUBJID null) **[Source: chapters/ch08_relationships.md]**\n- **Structure:** One record per related record, group of records, or dataset **[Source: model/06_relationship_datasets.md]**\n- **Variables:** Uses RDOMAIN, IDVAR, IDVARVAL, RELID, RELTYPE to define relationships **[Source: domains/RELREC/spec.md]**\n- **Subject-level:** Both subject-level and dataset-level **[Source: model/06_relationship_datasets.md]**\n\n---\n\n## Critical Correction to the Question\n\n**RELSPEC does NOT define relationships between datasets at the study level.** It is exclusively for specimen lineage tracking. The dataset that defines relationships between datasets at the study level is **RELREC** (when USUBJID is null and RELTYPE is populated with ONE/MANY). **[Source: chapters/ch08_relationships.md, Section 8.3]**\n\n### How RELREC Defines Dataset-Level Relationships\n\nWhen RELREC is used for dataset-to-dataset relationships:\n\n- **USUBJID** is null\n- **IDVAR** contains the merge key variable name (e.g., TULNKID, TRLNKID)\n- **IDVARVAL** is null\n- **RELTYPE** identifies the hierarchical level (ONE or MANY)\n\n**Example** (from chapters/ch08_relationships.md):\n\n| STUDYID | RDOMAIN | USUBJID | IDVAR | IDVARVAL | RELTYPE | RELID |\n|---------|---------|---------|-------|----------|---------|-------|\n| EFC1234 | TU | | TULNKID | | ONE | 1 |\n| EFC1234 | TR | | TRLNKID | | MANY | 1 |\n\nThis represents a one-to-many relationship between the TU and TR datasets, where TULNKID and TRLNKID are the merge keys.\n\n---\n\n## Summary Table\n\n| Aspect | RELSPEC | RELREC |\n|--------|---------|--------|\n| **Class** | Relationship | Relationship |\n| **Purpose** | Specimen lineage | Record/dataset relationships |\n| **Subject-level?** | Yes | Both (subject and dataset) |\n| **Can relate datasets?** | **No** | **Yes** (with USUBJID null) |\n| **Key variables** | REFID, PARENT, LEVEL, SPEC | RDOMAIN, IDVAR, IDVARVAL, RELID, RELTYPE |\n| **Controlled terminology** | SPEC (C77529), SPECTYPE (C78734), GENSMP (C111114) | RELTYPE (ONE/MANY) |\n\n**[Sources: model/06_relationship_datasets.md; domains/RELSPEC/assumptions.md; chapters/ch08_relationships.md]**",
      "elapsed_s": 11.48
    },
    {
      "id": "q34",
      "category": "cross_domain",
      "question": "Which SDTM domains share the controlled terminology codelist for NY (No Yes Response, C66742), and what variable typically uses this codelist in those domains?",
      "source_recall": 1.0,
      "source_hits": [
        "VARIABLE_INDEX.md"
      ],
      "source_misses": [],
      "top5_sources": [
        "VARIABLE_INDEX.md",
        "terminology/core/general_part4.md",
        "chapters/ch04_general_assumptions.md",
        "chapters/ch04_general_assumptions.md",
        "model/01_concepts_and_terms.md"
      ],
      "top5_similarities": [
        0.4516,
        0.5903,
        0.6157,
        0.6351,
        0.5697
      ],
      "fact_recall": 1.0,
      "fact_hits": [
        "C66742",
        "NY"
      ],
      "fact_misses": [],
      "answer_preview": "Based on the retrieved context, the following SDTM domains share the controlled terminology codelist **No Yes Response (C66742)**, along with the variable that typically uses this codelist:\n\n| Domain | Variable(s) Using C66742 | Source |\n|--------|--------------------------|--------|\n| **SV** (Subject Visits) | SVPRESP, SVOCCUR, SVEPCHGI | [Source: domains/SV/spec.md] |\n| **TM** (Trial Disease Milestones) | TMRPT | [Source: domains/TM/spec.md] |\n\nAdditionally, the context notes that **--PRESP** variables across domains are associated with the NY codelist, but only the value \"Y\" is allowed in -",
      "usage": {
        "prompt_tokens": 12944,
        "completion_tokens": 310,
        "total_tokens": 13254
      },
      "model": "deepseek/deepseek-chat",
      "answer": "Based on the retrieved context, the following SDTM domains share the controlled terminology codelist **No Yes Response (C66742)**, along with the variable that typically uses this codelist:\n\n| Domain | Variable(s) Using C66742 | Source |\n|--------|--------------------------|--------|\n| **SV** (Subject Visits) | SVPRESP, SVOCCUR, SVEPCHGI | [Source: domains/SV/spec.md] |\n| **TM** (Trial Disease Milestones) | TMRPT | [Source: domains/TM/spec.md] |\n\nAdditionally, the context notes that **--PRESP** variables across domains are associated with the NY codelist, but only the value \"Y\" is allowed in --PRESP variables [Source: chapters/ch04_general_assumptions.md §4.3.3].\n\nThe **No Yes Response (C66742)** codelist itself contains the following permissible values (non-extensible) [Source: terminology/core/general_part4.md]:\n\n| CDISC Submission Value | Meaning |\n|------------------------|---------|\n| N | No |\n| NA | Not Applicable |\n| U | Unknown |\n| Y | Yes |\n\n**Note:** The context does not provide an exhaustive list of all domains that use C66742. The two domains explicitly identified are SV and TM. Other domains (e.g., those with --PRESP variables) may also use this codelist, but that is not directly confirmed in the retrieved context.",
      "elapsed_s": 4.2
    },
    {
      "id": "q11",
      "category": "concept",
      "question": "What are the three observation classes in the SDTM model?",
      "source_recall": 1.0,
      "source_hits": [
        "model/02_observation_classes.md"
      ],
      "source_misses": [],
      "top5_sources": [
        "model/01_concepts_and_terms.md",
        "model/02_observation_classes.md",
        "chapters/ch04_general_assumptions.md",
        "chapters/ch04_general_assumptions.md",
        "terminology/supplementary/supplementary_part5.md"
      ],
      "top5_similarities": [
        0.5632,
        0.7205,
        0.5452,
        0.5352,
        0.5473
      ],
      "fact_recall": 1.0,
      "fact_hits": [
        "Interventions",
        "Events",
        "Findings"
      ],
      "fact_misses": [],
      "answer_preview": "Based on the SDTM model, the three general observation classes are **Interventions**, **Events**, and **Findings**.\n\nThese are described as the majority of observations collected during a study, and SDTM datasets that represent data about study subjects are of 2 types: general observation class datasets and special-purpose datasets. The three general observation classes share a set of common identifier and timing variables.\n\n**[Source: model/02_observation_classes.md — Overview]**\n**[Source: chapters/ch04_general_assumptions.md — 4.1.1]**\n**[Source: chapters/ch04_general_assumptions.md — 4.1.4",
      "usage": {
        "prompt_tokens": 14875,
        "completion_tokens": 131,
        "total_tokens": 15006
      },
      "model": "deepseek/deepseek-chat",
      "answer": "Based on the SDTM model, the three general observation classes are **Interventions**, **Events**, and **Findings**.\n\nThese are described as the majority of observations collected during a study, and SDTM datasets that represent data about study subjects are of 2 types: general observation class datasets and special-purpose datasets. The three general observation classes share a set of common identifier and timing variables.\n\n**[Source: model/02_observation_classes.md — Overview]**\n**[Source: chapters/ch04_general_assumptions.md — 4.1.1]**\n**[Source: chapters/ch04_general_assumptions.md — 4.1.4]**",
      "elapsed_s": 2.74
    },
    {
      "id": "q12",
      "category": "concept",
      "question": "What do the Core designations Req, Exp, and Perm mean in SDTM?",
      "source_recall": 1.0,
      "source_hits": [
        "chapters/ch04"
      ],
      "source_misses": [],
      "top5_sources": [
        "chapters/ch04_general_assumptions.md",
        "VARIABLE_INDEX.md",
        "domains/SUPPQUAL/spec.md",
        "chapters/ch04_general_assumptions.md",
        "domains/CO/spec.md"
      ],
      "top5_similarities": [
        0.6571,
        0.5558,
        0.6055,
        5.7202,
        0.5926
      ],
      "fact_recall": 1.0,
      "fact_hits": [
        "Required",
        "Expected",
        "Permissible"
      ],
      "fact_misses": [],
      "answer_preview": "## SDTM Core Designations\n\nThe **Core** column in SDTM domain models specifies three categories that define whether a variable must be included in a dataset and whether it can contain null values:\n\n### Req (Required)\n- **Meaning**: A Required variable is basic to the identification of a data record (i.e., essential key variables and a topic variable) or is necessary to make the record meaningful.\n- **Rule**: Must always be included in the dataset and **cannot be null for any record**.\n- **Example**: `SRTESTCD` in the SR domain is Req — every record must have a test code. **[Source: domains/SR/",
      "usage": {
        "prompt_tokens": 13661,
        "completion_tokens": 583,
        "total_tokens": 14244
      },
      "model": "deepseek/deepseek-chat",
      "answer": "## SDTM Core Designations\n\nThe **Core** column in SDTM domain models specifies three categories that define whether a variable must be included in a dataset and whether it can contain null values:\n\n### Req (Required)\n- **Meaning**: A Required variable is basic to the identification of a data record (i.e., essential key variables and a topic variable) or is necessary to make the record meaningful.\n- **Rule**: Must always be included in the dataset and **cannot be null for any record**.\n- **Example**: `SRTESTCD` in the SR domain is Req — every record must have a test code. **[Source: domains/SR/spec.md]**\n\n### Exp (Expected)\n- **Meaning**: Any variable necessary to make a record useful in the context of a specific domain.\n- **Rule**: Must be included in the dataset. Values should be populated when available; null values are allowed when data were not collected or are not applicable. If the study does not include the data item for an expected variable, a null column must still be included in the dataset, and a comment must be included in the Define-XML document stating that the study does not include the data item.\n- **Example**: `AEREL` (Causality) in AE is Exp — it must be in the dataset but may be null if causality was not assessed. **[Source: domains/AE/spec.md]**\n\n### Perm (Permissible)\n- **Meaning**: May be included in the dataset if the study collected the data.\n- **Rule**: \n  - If a study includes a data item that would be represented in a Permissible variable, then that variable **must** be included (even if null) and declared in Define-XML.\n  - If a study did **not** collect the data item, the variable should **not** be included in the dataset and should **not** be declared in Define-XML.\n- **Example**: `SRGRPID` (Group ID) in SR is Perm — it is included only if the study uses grouping identifiers. **[Source: domains/SR/spec.md]**\n\n### Additional Notes\n- All identifier, timing, and general observation class variables listed in the SDTM are permissible unless specifically restricted by the implementation guide or domain assumptions. **[Source: chapters/ch04_general_assumptions.md §4.1.5]**\n- Domain assumptions that say a Permissible variable is \"generally not used\" do **not** prohibit use of the variable. **[Source: chapters/ch04_general_assumptions.md §4.1.5]**\n- A null value should not be included in the permissible value set for controlled terminology; null is implied for any list of controlled terms unless the variable is Required. **[Source: chapters/ch04_general_assumptions.md §4.3.3]**",
      "elapsed_s": 6.83
    },
    {
      "id": "q13",
      "category": "concept",
      "question": "What is the difference between Topic, Qualifier, and Identifier variable roles?",
      "source_recall": 1.0,
      "source_hits": [
        "model/01_concepts_and_terms.md"
      ],
      "source_misses": [],
      "top5_sources": [
        "model/01_concepts_and_terms.md",
        "model/06_relationship_datasets.md",
        "chapters/ch08_relationships.md",
        "chapters/ch04_general_assumptions.md",
        "domains/ML/assumptions.md"
      ],
      "top5_similarities": [
        0.4934,
        0.4564,
        0.4718,
        0.526,
        0.5227
      ],
      "fact_recall": 1.0,
      "fact_hits": [
        "Topic",
        "Qualifier",
        "Identifier"
      ],
      "fact_misses": [],
      "answer_preview": "## Difference Between Topic, Qualifier, and Identifier Variable Roles\n\nThe SDTM defines **5 major variable roles**, of which Identifier, Topic, and Qualifier are three. Each role describes a distinct type of information conveyed by the variable about each observation.\n\n---\n\n### 1. Identifier Variables\n\n**Purpose:** Identify the study, subject, domain, and sequence number of the record.\n\n**Key characteristics:**\n- Provide the keys for linking records across datasets\n- Typically appear first in the variable ordering for all observation classes\n- Examples: `STUDYID`, `DOMAIN`, `USUBJID`, `--SEQ`,",
      "usage": {
        "prompt_tokens": 15417,
        "completion_tokens": 1049,
        "total_tokens": 16466
      },
      "model": "deepseek/deepseek-chat",
      "answer": "## Difference Between Topic, Qualifier, and Identifier Variable Roles\n\nThe SDTM defines **5 major variable roles**, of which Identifier, Topic, and Qualifier are three. Each role describes a distinct type of information conveyed by the variable about each observation.\n\n---\n\n### 1. Identifier Variables\n\n**Purpose:** Identify the study, subject, domain, and sequence number of the record.\n\n**Key characteristics:**\n- Provide the keys for linking records across datasets\n- Typically appear first in the variable ordering for all observation classes\n- Examples: `STUDYID`, `DOMAIN`, `USUBJID`, `--SEQ`, `APID`, `POOLID`, `SPDEVID`\n\n**Source:** [model/01_concepts_and_terms.md] — \"Identifier variables — identify the study, subject, domain, and sequence number of the record\"\n\n---\n\n### 2. Topic Variables\n\n**Purpose:** Specify the focus of the observation — what the observation is about.\n\n**Key characteristics:**\n- Define the primary subject matter of the record\n- Follow Identifier variables in the variable ordering\n- The specific topic variable differs by observation class:\n  - **Interventions:** `--TRT` (e.g., `CMTRT`, `EXTRT`) — the treatment name\n  - **Events:** `--TERM` (e.g., `AETERM`, `MHTERM`) — the event term\n  - **Findings:** `--TESTCD` / `--TEST` (e.g., `LBTESTCD`, `VSTESTCD`) — the measurement/test name\n- In relationship datasets (SUPPQUAL), `QNAM` serves as the Topic variable\n\n**Source:** [model/01_concepts_and_terms.md] — \"Topic variables — specify the focus of the observation (e.g., the name of a lab test)\"\n\n---\n\n### 3. Qualifier Variables\n\n**Purpose:** Include additional illustrative text or numeric values that describe the results or additional traits of the observation.\n\n**Key characteristics:**\n- The largest and most diverse role category\n- Follow Topic variables in the variable ordering\n- Divided into **5 subclasses**:\n\n| Subclass | Purpose | Examples |\n|----------|---------|----------|\n| **Grouping Qualifiers** | Group observations within the same domain | `--CAT`, `--SCAT` |\n| **Result Qualifiers** | Describe specific results (Findings only) | `--ORRES`, `--STRESC`, `--STRESN` |\n| **Synonym Qualifiers** | Specify alternative names for a variable | `--MODIFY`, `--DECOD` (for `--TRT`/`--TERM`); `--TEST` (for `--TESTCD`) |\n| **Record Qualifiers** | Define additional attributes of the entire observation record | `--REASND`, `AESLIFE`, `AGE`, `SEX`, `--BLFL`, `--POS`, `--LOC`, `--SPEC` |\n| **Variable Qualifiers** | Modify or describe a specific variable within an observation | `--ORRESU` (qualifies `--ORRES`), `--DOSU` (qualifies `--DOSE`) |\n\n**Source:** [chapters/ch02_fundamentals.md] — Qualifier Variable Subclasses table\n\n---\n\n### Summary Comparison Table\n\n| Aspect | Identifier | Topic | Qualifier |\n|--------|-----------|-------|-----------|\n| **Primary function** | Identify record context | Define observation focus | Describe/qualify the observation |\n| **Order in dataset** | First | Second | Third (before Timing) |\n| **Examples** | `STUDYID`, `USUBJID`, `--SEQ` | `CMTRT`, `AETERM`, `LBTESTCD` | `--CAT`, `--ORRES`, `--SEV`, `--DECOD` |\n| **Cross-domain linkage** | Yes (primary keys) | No (domain-specific) | Sometimes (e.g., `--DECOD` via MedDRA) |\n| **Role in SUPPQUAL** | `STUDYID`, `RDOMAIN`, `USUBJID`, `IDVAR`, `IDVARVAL` | `QNAM` | `QLABEL` (Synonym), `QVAL` (Result), `QORIG`/`QEVAL` (Record) |\n\n**Source:** [model/01_concepts_and_terms.md] — Variable Roles section; [chapters/ch02_fundamentals.md] — §2.1 Observations and Variables\n\n---\n\n### Variable Ordering Rule\n\nFor the 3 general observation classes (Interventions, Events, Findings), variables **must be ordered** as: **Identifiers first, followed by Topic, Qualifier, and Timing variables**. Within each role, variables must follow the order shown in the SDTM model sections.\n\n**Source:** [chapters/ch04_general_assumptions.md] — §4.1.4 Order of the Variables",
      "elapsed_s": 11.84
    },
    {
      "id": "q14",
      "category": "concept",
      "question": "How should a sponsor create a new custom domain in SDTM?",
      "source_recall": 1.0,
      "source_hits": [
        "chapters/ch02"
      ],
      "source_misses": [],
      "top5_sources": [
        "chapters/ch04_general_assumptions.md",
        "chapters/ch02_fundamentals.md",
        "chapters/ch01_introduction.md",
        "chapters/ch04_general_assumptions.md",
        "chapters/ch03_submitting_data.md"
      ],
      "top5_similarities": [
        0.601,
        0.4731,
        0.4776,
        0.4945,
        0.4894
      ],
      "fact_recall": 1.0,
      "fact_hits": [
        "observation class"
      ],
      "fact_misses": [],
      "answer_preview": "Based on the retrieved context, a sponsor should follow these steps to create a new custom domain in SDTM:\n\n1. **Determine the General Observation Class**: First, determine whether the observation represents an **Intervention**, **Event**, or **Finding** by considering the content of the information in light of the definitions of the 3 general observation classes, rather than by trying to deduce the class from the information's physical structure. **[Source: chapters/ch08_relationships.md]**\n\n2. **Use Reserved Domain Codes**: To eliminate any risk of conflict with future CDISC domain codes, do",
      "usage": {
        "prompt_tokens": 15770,
        "completion_tokens": 479,
        "total_tokens": 16249
      },
      "model": "deepseek/deepseek-chat",
      "answer": "Based on the retrieved context, a sponsor should follow these steps to create a new custom domain in SDTM:\n\n1. **Determine the General Observation Class**: First, determine whether the observation represents an **Intervention**, **Event**, or **Finding** by considering the content of the information in light of the definitions of the 3 general observation classes, rather than by trying to deduce the class from the information's physical structure. **[Source: chapters/ch08_relationships.md]**\n\n2. **Use Reserved Domain Codes**: To eliminate any risk of conflict with future CDISC domain codes, domain codes beginning with the letters **X, Y, and Z** have been reserved for the creation of custom domains. Any letter or number may be used in the second position. Note that the use of codes beginning with X, Y, or Z is optional and not required for custom domains. **[Source: chapters/ch04_general_assumptions.md]**\n\n3. **Apply Variable Naming Conventions**: When adding variables from the SDTM to custom domains based on the general observation classes, sponsors must replace the \"--\" prefix in the SDTM tables of General Observation Class, Timing, and Identifier variables with the 2-character domain identifier (DOMAIN) value for that domain/dataset. The 2-character domain code is limited to A-Z for the first character, and A-Z, 0-9 for the second character. No other characters are allowed. **[Source: chapters/ch04_general_assumptions.md]**\n\n4. **Follow the General Observation Class Model**: The domain models in Section 6 of the SDTMIG illustrate how to apply the SDTM when creating a specific domain dataset, including selecting a subset of variables offered in one of the general observation classes along with applicable timing variables. These models show how to adjust standard variables to meet specific content needs. **[Source: chapters/ch03_submitting_data.md]**\n\n5. **Document in Define-XML**: The Define-XML document that accompanies a submission should describe each dataset, including dataset filenames, descriptions, locations, structures, class, purpose, and keys. **[Source: chapters/ch03_submitting_data.md]**\n\n**Note**: The context does not provide the full details from Section 2.6 \"Creating a New Domain\" of the SDTMIG, which would contain additional specific guidance on the process.",
      "elapsed_s": 6.4
    },
    {
      "id": "q15",
      "category": "concept",
      "question": "What are the three SDTM Core designation categories for variables, and what are the rules for handling a Permissible variable when a study did not collect the corresponding data item?",
      "source_recall": 1.0,
      "source_hits": [
        "chapters/ch04_general_assumptions.md"
      ],
      "source_misses": [],
      "top5_sources": [
        "chapters/ch04_general_assumptions.md",
        "chapters/ch01_introduction.md",
        "chapters/ch04_general_assumptions.md",
        "chapters/ch04_general_assumptions.md",
        "model/01_concepts_and_terms.md"
      ],
      "top5_similarities": [
        0.7806,
        0.6228,
        0.5995,
        0.5964,
        0.6896
      ],
      "fact_recall": 1.0,
      "fact_hits": [
        "Req",
        "Exp",
        "Perm"
      ],
      "fact_misses": [],
      "answer_preview": "## SDTM Core Designations and Permissible Variable Rules\n\n### Three Core Designation Categories\n\nThe SDTM specifies three Core designation categories for variables:\n\n| Core Value | Meaning | Rule |\n|------------|---------|------|\n| **Req** (Required) | A Required variable is any variable that is basic to the identification of a data record (i.e., essential key variables and a topic variable) or is necessary to make the record meaningful. | Must always be included in the dataset and **cannot be null for any record**. |\n| **Exp** (Expected) | Must be included in the dataset. | Value should be po",
      "usage": {
        "prompt_tokens": 16093,
        "completion_tokens": 504,
        "total_tokens": 16597
      },
      "model": "deepseek/deepseek-chat",
      "answer": "## SDTM Core Designations and Permissible Variable Rules\n\n### Three Core Designation Categories\n\nThe SDTM specifies three Core designation categories for variables:\n\n| Core Value | Meaning | Rule |\n|------------|---------|------|\n| **Req** (Required) | A Required variable is any variable that is basic to the identification of a data record (i.e., essential key variables and a topic variable) or is necessary to make the record meaningful. | Must always be included in the dataset and **cannot be null for any record**. |\n| **Exp** (Expected) | Must be included in the dataset. | Value should be populated when available; null values allowed when data not collected/applicable; must still include the column and add a comment in the Define-XML document to state that the study does not include the data item. |\n| **Perm** (Permissible) | May be included in the dataset. | Rules depend on whether the data item was collected (see below). |\n\n**[Source: chapters/ch04_general_assumptions.md — 4.1.5 SDTM Core Designations]**\n\n### Rules for Permissible Variables When a Study Did Not Collect the Data Item\n\nWhen a study **did not include** a data item that would be represented in a Permissible variable:\n\n> **That variable should NOT be included in the SDTM dataset and should NOT be declared in the Define-XML document.**\n\n**[Source: chapters/ch04_general_assumptions.md — 4.1.5 SDTM Core Designations]**\n\n### Contrast: When a Study DID Collect the Data Item\n\nFor completeness, if a study **did include** a data item that would be represented in a Permissible variable:\n\n> **That variable MUST be included in the SDTM dataset, even if null. Indicate no data were available for that variable in the Define-XML document.**\n\n**[Source: chapters/ch04_general_assumptions.md — 4.1.5 SDTM Core Designations]**\n\n### Additional Note on Permissible Variables\n\nAlthough domain specification tables list only some of the identifier, timing, and general observation class variables, **all are permissible** unless specifically restricted in the implementation guide or by specific domain assumptions. Domain assumptions that say a Permissible variable is \"generally not used\" do not prohibit use of the variable.\n\n**[Source: chapters/ch04_general_assumptions.md — 4.1.5 SDTM Core Designations]**",
      "elapsed_s": 5.69
    },
    {
      "id": "q35",
      "category": "concept",
      "question": "What is Controlled Terminology (CT) in SDTM and how does it constrain the values that variables can contain?",
      "source_recall": 1.0,
      "source_hits": [
        "chapters/ch04"
      ],
      "source_misses": [],
      "top5_sources": [
        "chapters/ch04_general_assumptions.md",
        "chapters/ch04_general_assumptions.md",
        "model/01_concepts_and_terms.md",
        "model/01_concepts_and_terms.md",
        "chapters/ch10_appendices.md"
      ],
      "top5_similarities": [
        0.607,
        0.6771,
        0.6231,
        0.5926,
        0.6137
      ],
      "fact_recall": 1.0,
      "fact_hits": [
        "codelist",
        "Controlled Terms"
      ],
      "fact_misses": [],
      "answer_preview": "# Controlled Terminology (CT) in SDTM\n\n## Definition and Purpose\n\nControlled Terminology (CT) in SDTM refers to **standardized, predefined sets of values** that certain variables are permitted to contain. CT ensures consistency across studies, sponsors, and submissions by limiting variable values to an agreed-upon set of terms managed by the CDISC Controlled Terminology Team through the NCI Enterprise Vocabulary Services (NCI-EVS). **[Source: chapters/ch10_appendices.md]**\n\n## How CT Constrains Variable Values\n\n### 1. Representation in Domain Specifications\n\nIn the SDTMIG domain specification ",
      "usage": {
        "prompt_tokens": 15565,
        "completion_tokens": 1058,
        "total_tokens": 16623
      },
      "model": "deepseek/deepseek-chat",
      "answer": "# Controlled Terminology (CT) in SDTM\n\n## Definition and Purpose\n\nControlled Terminology (CT) in SDTM refers to **standardized, predefined sets of values** that certain variables are permitted to contain. CT ensures consistency across studies, sponsors, and submissions by limiting variable values to an agreed-upon set of terms managed by the CDISC Controlled Terminology Team through the NCI Enterprise Vocabulary Services (NCI-EVS). **[Source: chapters/ch10_appendices.md]**\n\n## How CT Constrains Variable Values\n\n### 1. Representation in Domain Specifications\n\nIn the SDTMIG domain specification tables, the \"Controlled Terms, Codelist or Format\" column indicates how CT applies to a variable using several conventions **[Source: chapters/ch04_general_assumptions.md — 4.3.1]**:\n\n| Convention | Meaning |\n|------------|---------|\n| `(NY)` | Name of a CDISC codelist (hyperlinked) |\n| `*` | CDISC CT not yet available; sponsor may use own terminology |\n| `\"PR\"` | Single applicable value (e.g., for DOMAIN variable) |\n| `\"MedDRA\"` | Reference to an external terminology system |\n| ISO 8601 format | Indicates date/time format constraint |\n\n### 2. Codelist Structure\n\nEach codelist has:\n- A **CDISC Codelist Code** (e.g., C66742)\n- A **Codelist Name** (e.g., \"Yes/No Response\")\n- A set of **Permitted Values** (e.g., \"Y\", \"N\")\n- An **Extensibility** flag (whether sponsors can add values)\n\n### 3. Enforcement Mechanisms\n\n**Define-XML Documentation**: The controlled terminology or a reference to it must be included in the Define-XML document wherever applicable. All values in the permissible value set for the study should be included, whether or not they are represented in submitted data. **[Source: chapters/ch04_general_assumptions.md — 4.3.3]**\n\n**Null Values**: A null value should not be included in the permissible value set. A null value is implied for any list of controlled terms unless the variable is \"Required\". **[Source: chapters/ch04_general_assumptions.md — 4.3.3]**\n\n**Text Case**: Terms from controlled terminology should be in the case that appears in the source codelist or code system (e.g., CDISC codelist or external code system such as MedDRA). **[Source: chapters/ch04_general_assumptions.md — 4.3.2]**\n\n### 4. Types of CT Constraints\n\n| Type | Example | Constraint |\n|------|---------|------------|\n| **Binary flags** | `NY` codelist (Y/N) | Only \"Y\" or \"N\" allowed |\n| **Domain-specific codes** | `--TESTCD` values | Must match published CT for that domain |\n| **External systems** | MedDRA for AEBODSYS | Must use MedDRA dictionary terms |\n| **Standardized names** | Route of administration | Must use CDISC route codelist |\n| **Relationship types** | RELTYPE in RELREC | Only \"ONE\" or \"MANY\" allowed |\n\n### 5. Where CT Applies\n\nCT is most commonly applied to:\n- **--TESTCD/--TEST** values in Findings domains (e.g., LBTESTCD, VSTESTCD) **[Source: chapters/ch04_general_assumptions.md — 4.2.1.1]**\n- **--TERM** values in Events domains (e.g., AETERM via MedDRA coding) **[Source: chapters/ch04_general_assumptions.md — 4.2.1.3]**\n- **--TRT** values in Interventions domains **[Source: chapters/ch04_general_assumptions.md — 4.2.1.2]**\n- **Flag variables** (e.g., --PRESP, --BLFL) using the NY codelist\n- **Trial summary parameters** (TSVAL) **[Source: domains/TS/assumptions.md — item_8]**\n- **Tumor/Lesion Results** (TRTESTCD/TRTEST) **[Source: domains/TR/assumptions.md — item_3]**\n\n### 6. Variable Length Implications\n\nFor variables that use controlled terminology, the length can be set to the length of the longest term in the codelist, avoiding unnecessarily large character fields. **[Source: chapters/ch04_general_assumptions.md — 4.2.9]**\n\n## Summary\n\nControlled Terminology constrains SDTM variable values by providing **standardized, pre-approved value sets** that ensure consistency across submissions. These constraints are documented in the Controlled Terms column of domain specifications, enforced through Define-XML metadata, and managed centrally by CDISC through NCI-EVS. Variables subject to CT must only contain values from the specified codelist (or external terminology system), with the case matching the source terminology.",
      "elapsed_s": 12.62
    },
    {
      "id": "q36",
      "category": "concept",
      "question": "What are the timing variables in SDTM (such as --DTC, --STDTC, --ENDTC) and how are they structured across domains?",
      "source_recall": 1.0,
      "source_hits": [
        "chapters/ch04"
      ],
      "source_misses": [],
      "top5_sources": [
        "chapters/ch04_general_assumptions.md",
        "model/01_concepts_and_terms.md",
        "chapters/ch04_general_assumptions.md",
        "model/02_observation_classes.md",
        "domains/BE/assumptions.md"
      ],
      "top5_similarities": [
        0.6533,
        0.7001,
        0.6573,
        0.6517,
        0.6647
      ],
      "fact_recall": 1.0,
      "fact_hits": [
        "DTC",
        "STDTC",
        "ENDTC",
        "Timing"
      ],
      "fact_misses": [],
      "answer_preview": "## SDTM Timing Variables: Structure and Usage Across Domains\n\nSDTM defines a comprehensive set of timing variables available for use in any domain based on the three general observation classes (Interventions, Events, Findings), with specific restrictions per class. Below is the authoritative breakdown.\n\n---\n\n### Core Date/Time Variables\n\n| Variable | Label | Type | Format | Availability |\n|----------|-------|------|--------|-------------|\n| **--DTC** | Date/Time of Collection | Char | ISO 8601 | All 3 GOC classes |\n| **--STDTC** | Start Date/Time of Observation | Char | ISO 8601 | **Not** in ",
      "usage": {
        "prompt_tokens": 15531,
        "completion_tokens": 1644,
        "total_tokens": 17175
      },
      "model": "deepseek/deepseek-chat",
      "answer": "## SDTM Timing Variables: Structure and Usage Across Domains\n\nSDTM defines a comprehensive set of timing variables available for use in any domain based on the three general observation classes (Interventions, Events, Findings), with specific restrictions per class. Below is the authoritative breakdown.\n\n---\n\n### Core Date/Time Variables\n\n| Variable | Label | Type | Format | Availability |\n|----------|-------|------|--------|-------------|\n| **--DTC** | Date/Time of Collection | Char | ISO 8601 | All 3 GOC classes |\n| **--STDTC** | Start Date/Time of Observation | Char | ISO 8601 | **Not** in Findings class |\n| **--ENDTC** | End Date/Time of Observation | Char | ISO 8601 | All 3 GOC classes |\n\n**[Source: model/02_observation_classes.md — 3.1.5 Timing Variables for All Classes]**\n\n---\n\n### Class-Specific Rules\n\n#### 1. Findings Class (e.g., LB, EG, VS, PC)\n\n- **--DTC** represents the **date/time of specimen collection** (not data recording)\n- **--STDTC must NOT be used** in Findings domains\n- For **interval collections** (e.g., 24-hour urine): use **--DTC** for start date/time and **--ENDTC** for end date/time\n- For **single-point collections**: use **--DTC** only\n\n**[Source: chapters/ch04_general_assumptions.md — 4.4.8 Date and Time Reported in a Domain Based on Findings]**\n\n#### 2. Events Class (e.g., AE, DS, MH, CE)\n\n- **--STDTC** holds the start date/time of the event\n- **--ENDTC** holds the end date/time (if applicable)\n- **--DTC** is used for the **date/time of data collection** (not the event start)\n- Exception: In **Biospecimen Events (BE)**, BEDTC holds the **date/time of specimen collection** (aligned with Findings usage), while BESTDTC/BEENDTC hold the event start/end\n\n**[Source: domains/BE/assumptions.md — item_6]**\n\n#### 3. Interventions Class (e.g., CM, EX, PR, SU)\n\n- **--STDTC** holds the start date/time of the intervention\n- **--ENDTC** holds the end date/time\n- **--DTC** is used for the **date/time of data collection**\n\n**[Source: chapters/ch04_general_assumptions.md — 4.4.8]**\n\n---\n\n### EPOCH Variable Guidance\n\n| Class | Basis for EPOCH |\n|-------|----------------|\n| **Findings** | Based on **--DTC** (date/time of test or specimen collection) |\n| **Interventions** | Based on **--STDTC** (start of intervention) |\n| **Events** | Based on **--STDTC** (start of event) |\n| **Disposition (DS)** | Based on **DSSTDTC** (date of disposition event) |\n\n**Note:** EPOCH should be null for observations that occurred before the subject's participation in the study (including screening). Sponsors should not impute EPOCH values.\n\n**[Source: chapters/ch04_general_assumptions.md — 4.1.3.1 EPOCH Variable Guidance]**\n\n---\n\n### Study Day Variables\n\n| Variable | Label | Derivation | Availability |\n|----------|-------|------------|-------------|\n| **--DY** | Study Day of Visit/Collection/Exam | Derived from --DTC and RFSTDTC | All classes |\n| **--STDY** | Study Day of Start of Observation | Derived from --STDTC and RFSTDTC | **Not** in Findings |\n| **--ENDY** | Study Day of End of Observation | Derived from --ENDTC and RFSTDTC | All classes |\n\n**Derivation rule:** RFSTDTC = Study Day 1. Days after RFSTDTC increment by +1. Days before RFSTDTC decrement by -1 (no day 0). Partial dates should not be used.\n\n**[Source: chapters/ch04_general_assumptions.md — 4.4.4 Use of the Study Day Variables]**\n\n---\n\n### Complete Timing Variable Set (48 variables)\n\nBeyond the core date/time variables, SDTM defines the following additional timing variable groups:\n\n| Group | Variables | Notes |\n|-------|-----------|-------|\n| **Visit/Epoch** | VISITNUM, VISIT, VISITDY, TAETORD, EPOCH | Protocol-defined visit and epoch |\n| **Time Point** | --TPT, --TPTNUM, --ELTM, --TPTREF, --RFTDTC | Planned time points |\n| **Relative Timing** | --STRF, --ENRF, --EVLINT, --EVINTX, --STRTPT, --STTPT, --ENRTPT, --ENTPT | Relative to reference periods |\n| **Duration** | --DUR | ISO 8601 duration (collected, not derived) |\n| **Exposure-Relative** | --XDY, --XSTDY, --XENDY | Relative to RFXSTDTC |\n| **Challenge-Relative** | --CHDY, --CHSTDY, --CHENDY | Relative to RFCSTDTC |\n\n**[Source: model/02_observation_classes.md — 3.1.5 Timing Variables for All Classes]**\n\n---\n\n### ISO 8601 Format Requirements\n\nAll DTC variables use the **extended format**:\n\n```\nYYYY-MM-DDThh:mm:ss(.n+)?(((+|-)hh:mm)|Z)?\n```\n\n- **Spaces are not allowed**\n- **Basic format** (without delimiters) must not be used\n- Partial dates/times are permitted (e.g., \"2001-12\" for year-month only)\n- Time zone offsets are optional\n\n**[Source: chapters/ch04_general_assumptions.md — 4.4.1 Formats for Date/Time Variables]**\n\n---\n\n### Restrictions on Adding Timing Variables\n\n- **Findings class**: --STDTC must not be added (per Assumption 4.4.8)\n- **Special-purpose domains**: Timing variables can only be added where explicitly specified in domain assumptions\n- **SUPPQUAL and RELREC**: Timing variables cannot be added\n- **Subject Elements (SE)**: --TPT, --TPTNUM, --ELTM, --TPTREF, --RFTDTC are inappropriate\n- **Subject Visits (SV)**: Time point variables are inappropriate; --DTC and --DY are available only when SVPRESP=\"Y\" and SVOCCUR=\"N\"\n\n**[Source: chapters/ch04_general_assumptions.md — 4.1.3 Additional Timing Variables; domains/SE/assumptions.md — item_11; domains/SV/assumptions.md — item_15]**\n\n---\n\n### Summary Table: --DTC vs --STDTC vs --ENDTC by Class\n\n| Class | --DTC | --STDTC | --ENDTC |\n|-------|-------|---------|---------|\n| **Findings** | Specimen/test collection date/time | **Not allowed** | End of interval collection |\n| **Events** | Data collection date/time | Event start date/time | Event end date/time |\n| **Interventions** | Data collection date/time | Intervention start date/time | Intervention end date/time |\n| **Disposition (DS)** | N/A | Disposition event date/time | Not used (single-point events) |\n| **Biospecimen Events (BE)** | Specimen collection date/time | Event start date/time | Event end date/time |",
      "elapsed_s": 15.89
    },
    {
      "id": "q37",
      "category": "concept",
      "question": "What are the Special-Purpose datasets in SDTM and which domains fall into this category?",
      "source_recall": 1.0,
      "source_hits": [
        "model/03_special_purpose_domains.md"
      ],
      "source_misses": [],
      "top5_sources": [
        "model/01_concepts_and_terms.md",
        "model/02_observation_classes.md",
        "model/03_special_purpose_domains.md",
        "chapters/ch04_general_assumptions.md",
        "chapters/ch04_general_assumptions.md"
      ],
      "top5_similarities": [
        0.666,
        0.6624,
        0.657,
        0.5978,
        0.6636
      ],
      "fact_recall": 1.0,
      "fact_hits": [
        "Special-Purpose",
        "DM",
        "CO",
        "SE"
      ],
      "fact_misses": [],
      "answer_preview": "Based on the retrieved context, the SDTM includes **Special-Purpose domains** as a distinct category alongside the three General Observation Classes (Interventions, Events, Findings), Trial Design Model datasets, Relationship datasets, and Study References.\n\nThe following domains are explicitly identified as Special-Purpose domains in the context:\n\n| Domain | Name | Source |\n|--------|------|--------|\n| **CO** | Comments | **[Source: domains/CO/assumptions.md]** — \"The Comments special-purpose domain provides a solution for submitting free-text comments...\" |\n| **DM** | Demographics | **[Sourc",
      "usage": {
        "prompt_tokens": 16475,
        "completion_tokens": 426,
        "total_tokens": 16901
      },
      "model": "deepseek/deepseek-chat",
      "answer": "Based on the retrieved context, the SDTM includes **Special-Purpose domains** as a distinct category alongside the three General Observation Classes (Interventions, Events, Findings), Trial Design Model datasets, Relationship datasets, and Study References.\n\nThe following domains are explicitly identified as Special-Purpose domains in the context:\n\n| Domain | Name | Source |\n|--------|------|--------|\n| **CO** | Comments | **[Source: domains/CO/assumptions.md]** — \"The Comments special-purpose domain provides a solution for submitting free-text comments...\" |\n| **DM** | Demographics | **[Source: chapters/ch03_submitting_data.md]** — Dataset-level metadata table lists DM with Class \"Special Purpose\" |\n| **SE** | Subject Elements | **[Source: chapters/ch03_submitting_data.md]** — Dataset-level metadata table lists SE with Class \"Special Purpose\" |\n| **SM** | Subject Disease Milestones | **[Source: chapters/ch03_submitting_data.md]** — Dataset-level metadata table lists SM with Class \"Special Purpose\" |\n| **SV** | Subject Visits | **[Source: chapters/ch03_submitting_data.md]** — Dataset-level metadata table lists SV with Class \"Special Purpose\" |\n\nAdditionally, the context notes that **RELREC** (Related Records) and **SUPPQUAL** (Supplemental Qualifiers) are described as \"special-purpose datasets\" in their respective assumption documents **[Source: domains/RELREC/assumptions.md]** and **[Source: domains/SUPPQUAL/assumptions.md]**. However, per the SDTM model structure, these are classified as **Relationship datasets** (a separate category), not Special-Purpose domains. The context explicitly distinguishes them: \"The SDTM includes a general model for representing data in 3 'general observation' classes... special-purpose domains, trial design model datasets, relationship datasets, and study references\" **[Source: chapters/ch04_general_assumptions.md]**.\n\n**Summary:** The five Special-Purpose domains with authoritative class designations in the context are **CO, DM, SE, SM, and SV**.",
      "elapsed_s": 5.7
    },
    {
      "id": "q38",
      "category": "concept",
      "question": "How are SDTM domain abbreviation codes assigned? What are the rules for the two-character domain code?",
      "source_recall": 1.0,
      "source_hits": [
        "chapters/ch02"
      ],
      "source_misses": [],
      "top5_sources": [
        "chapters/ch04_general_assumptions.md",
        "domains/SV/spec.md",
        "domains/FT/spec.md",
        "domains/EX/spec.md",
        "domains/IE/spec.md"
      ],
      "top5_similarities": [
        0.6759,
        0.6703,
        0.6691,
        0.6691,
        0.6689
      ],
      "fact_recall": 1.0,
      "fact_hits": [
        "two-character",
        "DOMAIN"
      ],
      "fact_misses": [],
      "answer_preview": "Based on the retrieved context, SDTM domain abbreviation codes are assigned according to the following rules:\n\n## Assignment Rules for the Two-Character Domain Code\n\n### 1. Standard Assignment\nSDTM datasets are normally named to be consistent with the domain code. For example, the Demographics dataset (DM) is named `dm.xpt`. The standard domain codes are defined in the **SDTM Domain Abbreviation codelist (C66734)** in CDISC Controlled Terminology. **[Source: chapters/ch04_general_assumptions.md §4.1.6]**\n\n### 2. Character Restrictions\nThe two-character domain code is limited to:\n- **First char",
      "usage": {
        "prompt_tokens": 10782,
        "completion_tokens": 686,
        "total_tokens": 11468
      },
      "model": "deepseek/deepseek-chat",
      "answer": "Based on the retrieved context, SDTM domain abbreviation codes are assigned according to the following rules:\n\n## Assignment Rules for the Two-Character Domain Code\n\n### 1. Standard Assignment\nSDTM datasets are normally named to be consistent with the domain code. For example, the Demographics dataset (DM) is named `dm.xpt`. The standard domain codes are defined in the **SDTM Domain Abbreviation codelist (C66734)** in CDISC Controlled Terminology. **[Source: chapters/ch04_general_assumptions.md §4.1.6]**\n\n### 2. Character Restrictions\nThe two-character domain code is limited to:\n- **First character:** A–Z only\n- **Second character:** A–Z or 0–9 only\n- **No other characters are allowed** (for compatibility with SAS v5 transport files and eCTD file naming requirements) **[Source: chapters/ch04_general_assumptions.md §4.2.2]**\n\n### 3. Reserved Codes for Custom Domains\nTo prevent conflicts with future CDISC-defined domain codes:\n- **Domain codes beginning with X, Y, or Z** are reserved for the creation of custom domains.\n- Any letter or number may be used in the second position.\n- Note: Use of codes beginning with X, Y, or Z is **optional**, not required for custom domains. **[Source: chapters/ch04_general_assumptions.md §4.1.6]**\n\n### 4. Usage of the Code\nThe 2-character domain code (DOMAIN value) is used in four ways:\n1. As the **dataset name**\n2. As the **value of the DOMAIN variable** in that dataset\n3. As a **prefix for most variable names** in that dataset\n4. As a value in the **RDOMAIN variable** in relationship tables **[Source: chapters/ch02_fundamentals.md §2.2]**\n\n### 5. Exceptions to Prefixing\nThe following variables are **not** prefixed with the domain identifier:\n- Required Identifiers: STUDYID, DOMAIN, USUBJID\n- Commonly used grouping and merge keys: VISIT, VISITNUM, VISITDY\n- All Demographics (DM) domain variables other than DMDTC and DMDY\n- All variables in RELREC and SUPPQUAL, and some variables in the Comments and Trial Design datasets **[Source: chapters/ch04_general_assumptions.md §4.2.2]**\n\n### 6. Domain-Specific Constraint\nFor certain domains, the DOMAIN value is fixed. For example, in the Trial Disease Milestones domain (TM), the CDISC Notes state: \"Two-character abbreviation for the domain, which must be TM.\" **[Source: domains/TM/spec.md]**\n\n### 7. Variable Definition\nThe DOMAIN variable itself is defined as:\n- **Label:** Domain Abbreviation\n- **Type:** Char\n- **Role:** Identifier\n- **Core:** Req (Required)\n- **CDISC Notes:** Two-character abbreviation for the domain (or \"most relevant to the observation\" in some domains) **[Source: multiple domain spec.md files, e.g., SV, FT, EX, IE, GF, PR, MH, MI, PP, ML, OE]**",
      "elapsed_s": 7.53
    },
    {
      "id": "q39",
      "category": "concept",
      "question": "What is the Findings About observation class and how does it differ from the standard Findings class?",
      "source_recall": 1.0,
      "source_hits": [
        "model/02_observation_classes.md"
      ],
      "source_misses": [],
      "top5_sources": [
        "domains/BS/spec.md",
        "chapters/ch08_relationships.md",
        "domains/CP/spec.md",
        "model/02_observation_classes.md",
        "domains/CV/spec.md"
      ],
      "top5_similarities": [
        0.7123,
        16.7017,
        0.7123,
        15.7114,
        0.7123
      ],
      "fact_recall": 0.5,
      "fact_hits": [
        "Findings About"
      ],
      "fact_misses": [
        "FAOBJ"
      ],
      "answer_preview": "## Findings About Observation Class\n\nThe **Findings About** observation class is a **subtype** of the Findings general observation class, used specifically to record findings that are **about events or interventions**, rather than direct observations about a subject. **[Source: model/02_observation_classes.md]**\n\n### Key Differences from Standard Findings\n\n| Aspect | Standard Findings | Findings About |\n|--------|-------------------|----------------|\n| **Purpose** | Observations resulting from planned evaluations (lab tests, ECG, questionnaires) | Findings about events or interventions |\n| **T",
      "usage": {
        "prompt_tokens": 13759,
        "completion_tokens": 738,
        "total_tokens": 14497
      },
      "model": "deepseek/deepseek-chat",
      "answer": "## Findings About Observation Class\n\nThe **Findings About** observation class is a **subtype** of the Findings general observation class, used specifically to record findings that are **about events or interventions**, rather than direct observations about a subject. **[Source: model/02_observation_classes.md]**\n\n### Key Differences from Standard Findings\n\n| Aspect | Standard Findings | Findings About |\n|--------|-------------------|----------------|\n| **Purpose** | Observations resulting from planned evaluations (lab tests, ECG, questionnaires) | Findings about events or interventions |\n| **Topic** | Direct subject measurements (e.g., laboratory tests, vital signs) | Properties/assessments of an event or intervention |\n| **Unique Variable** | None | **--OBJ** (Object of the Observation) |\n| **Example Domains** | LB, VS, EG, PE, QS | FA (Findings About Events or Interventions) |\n\n**[Source: model/02_observation_classes.md]**\n\n### The --OBJ Variable\n\nThe defining characteristic of Findings About is the **--OBJ** variable:\n\n| Attribute | Value |\n|-----------|-------|\n| **Label** | Object of the Observation |\n| **Type** | Char |\n| **Role** | Record Qualifier |\n| **Notes** | Describes the event or intervention whose property is being measured in --TESTCD/--TEST. Used in domains modeled as Findings About Events or Findings About Interventions. |\n\n**[Source: model/02_observation_classes.md]**\n\n### Variable Order\n\nIn Findings About, the --OBJ variable is placed **immediately after the --TEST variable** among Findings qualifiers. **[Source: model/02_observation_classes.md]**\n\n### When to Use Findings About (3 Criteria)\n\nPer SDTMIG §6.4.1, Findings About should be used when:\n\n1. **Different timing from associated event/intervention** — Assessments of parts of events (snapshots/slices) measured at multiple time points, where the event as a whole has different timing (e.g., individual symptoms of an adverse event assessed repeatedly)\n\n2. **Requires more than 1 variable** — An observation about an event/intervention that needs multiple variables for representation, preventing its inclusion as a supplemental qualifier\n\n3. **Indicates occurrence of pre-specified AEs** — Data indicating the occurrence of pre-specified adverse events\n\n**[Source: domains/FA/assumptions.md]**\n\n### What Should NOT Be in Findings About\n\nThe following qualifiers should generally **not** be used in the FA domain:\n- --BODSYS (Body System)\n- --MODIFY (Modified Term)\n- --SEV (Severity/Intensity)\n- --TOXGR (Toxicity Grade)\n\n**[Source: domains/FA/assumptions.md]**\n\n### Practical Example\n\nWhen collected data fit a qualifier variable name, that name should be used as the value of FATESTCD:\n\n| FATESTCD | FATEST |\n|----------|--------|\n| OCCUR | Occurrence Indicator |\n| SEV | Severity/Intensity |\n| TOXGR | Toxicity Grade |\n\n**[Source: model/02_observation_classes.md]**\n\n### Summary\n\nThe Findings About class extends the standard Findings model by adding the --OBJ variable to explicitly identify **what event or intervention** the finding is about. While standard Findings record direct subject measurements (e.g., \"What is the subject's blood pressure?\"), Findings About records assessments of events or interventions (e.g., \"What is the severity of this adverse event at this time point?\").",
      "elapsed_s": 9.31
    },
    {
      "id": "q40",
      "category": "concept",
      "question": "What is the difference between collected data and derived data in SDTM, and how is the origin of a variable value indicated?",
      "source_recall": 1.0,
      "source_hits": [
        "chapters/ch04"
      ],
      "source_misses": [],
      "top5_sources": [
        "chapters/ch04_general_assumptions.md",
        "model/01_concepts_and_terms.md",
        "chapters/ch01_introduction.md",
        "model/06_relationship_datasets.md",
        "domains/FT/assumptions.md"
      ],
      "top5_similarities": [
        0.641,
        0.6331,
        0.5625,
        0.5606,
        0.5889
      ],
      "fact_recall": 1.0,
      "fact_hits": [
        "Collected",
        "Derived",
        "Origin"
      ],
      "fact_misses": [],
      "answer_preview": "## Difference Between Collected and Derived Data in SDTM\n\n### Conceptual Distinction\n\n**Collected data** are values obtained directly from a source without transformation — e.g., entered on a CRF, received from a vendor/central lab, or captured from a device. **Derived data** are values created through a computational or algorithmic process applied to other data (e.g., calculating a total score from individual item responses, computing study day from dates).\n\nA key nuance: values produced by a central lab or vendor according to its own procedures are considered **collected**, not derived, from",
      "usage": {
        "prompt_tokens": 17283,
        "completion_tokens": 699,
        "total_tokens": 17982
      },
      "model": "deepseek/deepseek-chat",
      "answer": "## Difference Between Collected and Derived Data in SDTM\n\n### Conceptual Distinction\n\n**Collected data** are values obtained directly from a source without transformation — e.g., entered on a CRF, received from a vendor/central lab, or captured from a device. **Derived data** are values created through a computational or algorithmic process applied to other data (e.g., calculating a total score from individual item responses, computing study day from dates).\n\nA key nuance: values produced by a central lab or vendor according to its own procedures are considered **collected**, not derived, from the sponsor's perspective. Similarly, QRS instrument total scores received from a central provider are treated as collected data. **[Source: domains/LB/assumptions.md item_6]** **[Source: domains/QS/assumptions.md item_4.b.i]**\n\n### How Origin Is Indicated\n\nThe origin of a variable value is indicated through the **Origin metadata** in the Define-XML document. The origin element communicates to the reviewer where the data came from:\n\n| Origin Value | Meaning |\n|-------------|---------|\n| **CRF** | Data collected on the Case Report Form |\n| **Vendor** | Data received from an external vendor |\n| **Device** | Data captured from a medical device |\n| **Derived** | Value produced by a computational algorithm |\n| **Assigned** | Value assigned by the sponsor (e.g., a code) |\n\n**[Source: chapters/ch04_general_assumptions.md §4.1.8.1]**\n\n### Special Cases\n\n1. **Mixed origins in one variable**: When a variable contains both collected and derived values (e.g., QS domain where some records are individual item responses and others are total scores), the origin must be described using **value-level metadata** in Define-XML, not at the variable level. **[Source: chapters/ch04_general_assumptions.md §4.1.8.2]**\n\n2. **Derived flag (--DRVFL)**: In QRS domains, operationally derived records are flagged with `--DRVFL = \"Y\"`. However, scores received from a central provider or vendor are considered collected and `--DRVFL` is left null. An investigator-derived score written on a CRF is also considered captured and not flagged. **[Source: domains/QS/assumptions.md item_4.b.i]**\n\n3. **Supplemental Qualifiers (SUPP--)**: For non-standard variables stored in SUPP-- datasets, the origin of each value is explicitly recorded in the **QORIG** variable, which can take values such as `\"CRF\"`, `\"Derived\"`, or `\"Assigned\"`. **[Source: chapters/ch08_relationships.md §8.4.1, QORIG row]**\n\n### Summary Table\n\n| Aspect | Collected Data | Derived Data |\n|--------|---------------|--------------|\n| **Source** | CRF, vendor, device, central lab | Algorithm, calculation, transformation |\n| **Define-XML Origin** | CRF / Vendor / Device | Derived |\n| **--DRVFL (QRS)** | Null (or \"N\") | \"Y\" |\n| **Traceability** | Annotated CRF | Derivation algorithm in Define-XML |\n| **Mixed in one variable** | Requires value-level metadata | Requires value-level metadata |",
      "elapsed_s": 9.5
    },
    {
      "id": "q41",
      "category": "concept",
      "question": "What are the Trial Design Model datasets in SDTM and what kind of study-level information do they capture?",
      "source_recall": 1.0,
      "source_hits": [
        "model/05_study_level_data.md"
      ],
      "source_misses": [],
      "top5_sources": [
        "model/01_concepts_and_terms.md",
        "chapters/ch04_general_assumptions.md",
        "model/05_study_level_data.md",
        "domains/TA/assumptions.md",
        "domains/TI/assumptions.md"
      ],
      "top5_similarities": [
        0.6589,
        0.66,
        0.8164,
        0.6195,
        0.6483
      ],
      "fact_recall": 1.0,
      "fact_hits": [
        "Trial Design",
        "TA",
        "TE",
        "TV"
      ],
      "fact_misses": [],
      "answer_preview": "## Trial Design Model Datasets in SDTM\n\nThe Trial Design Model (TDM) is a component of the study-level data in SDTM. According to the SDTM model, study-level data includes two types: **trial design data** and **study reference data** **[Source: model/05_study_level_data.md]**.\n\nThe Trial Design Model provides a standardized way to describe the planned conduct of a clinical trial, as shown in study design diagrams and schedule-of-assessments tables required by ICH E3 **[Source: domains/TA/assumptions.md]**.\n\n### Trial Design Datasets\n\nThe following datasets constitute the Trial Design Model:\n\n|",
      "usage": {
        "prompt_tokens": 16360,
        "completion_tokens": 701,
        "total_tokens": 17061
      },
      "model": "deepseek/deepseek-chat",
      "answer": "## Trial Design Model Datasets in SDTM\n\nThe Trial Design Model (TDM) is a component of the study-level data in SDTM. According to the SDTM model, study-level data includes two types: **trial design data** and **study reference data** **[Source: model/05_study_level_data.md]**.\n\nThe Trial Design Model provides a standardized way to describe the planned conduct of a clinical trial, as shown in study design diagrams and schedule-of-assessments tables required by ICH E3 **[Source: domains/TA/assumptions.md]**.\n\n### Trial Design Datasets\n\nThe following datasets constitute the Trial Design Model:\n\n| Domain | Name | Description |\n|--------|------|-------------|\n| **TA** | Trial Arms | Describes the planned paths through the trial (arms), organized by epoch and study cell. Each arm is a planned path covering the entire trial, divided into study cells (one per epoch per arm). **[Source: domains/TA/assumptions.md]** |\n| **TE** | Trial Elements | Defines the reusable building blocks of trial time (elements). Elements represent periods of time with a specific purpose (e.g., screening, treatment, washout, follow-up). **[Source: domains/TE/examples.md]** |\n| **TV** | Trial Visits | Describes the planned visit schedule for the trial. |\n| **TD** | Trial Disease Assessments | Contains planned disease assessment schedules. |\n| **TM** | Trial Disease Milestones | Describes planned disease milestones (e.g., progression, response). |\n| **TI** | Trial Inclusion/Exclusion Criteria | Contains all inclusion and exclusion criteria for the trial in a tabular synopsis of the protocol. **[Source: domains/TI/assumptions.md]** |\n| **TS** | Trial Summary | Contains summary-level characteristics of the trial (e.g., design features, dose information, eligibility parameters). Uses parameter codes (TSPARMCD) from codelist C66738 and parameter names (TSPARM) from codelist C67152. **[Source: terminology/core/trial_design.md]** |\n\n### What Kind of Information They Capture\n\nThe Trial Design datasets capture **planned, protocol-level information** about the study, as opposed to subject-level data. Specifically:\n\n1. **Structural design**: How the trial is organized into arms, epochs, and elements (TA, TE)\n2. **Visit schedule**: Planned visits and their timing (TV)\n3. **Eligibility criteria**: Inclusion/exclusion criteria that define who can participate (TI)\n4. **Trial characteristics**: Summary parameters such as dose, dose form, dosing frequency, control type, blinding, adaptive design, and other protocol-level attributes (TS)\n5. **Disease-specific assessments**: Planned disease evaluations and milestones (TD, TM)\n\nThe standard Trial Design Datasets allow reviewers to clearly and quickly grasp the design of a clinical trial, compare designs across trials, search data warehouses for trials with certain features, and compare planned versus actual treatments and visits for subjects **[Source: domains/TA/assumptions.md]**.\n\n### Class Designation\n\nAll Trial Design datasets belong to the **Trial Design** class, which is a subtype of study-level data in the SDTM model **[Source: model/05_study_level_data.md; domains/TA/spec.md; domains/TE/spec.md; domains/TD/spec.md]**.",
      "elapsed_s": 9.51
    },
    {
      "id": "q16",
      "category": "mixed",
      "question": "What values are allowed for AESEV and what is its codelist code?",
      "source_recall": 1.0,
      "source_hits": [
        "domains/AE/spec.md",
        "terminology/core/ae.md"
      ],
      "source_misses": [],
      "top5_sources": [
        "terminology/core/ae.md",
        "domains/AE/assumptions.md",
        "domains/DM/examples.md",
        "domains/AE/spec.md",
        "chapters/ch04_general_assumptions.md"
      ],
      "top5_similarities": [
        0.3821,
        0.6134,
        8.5566,
        0.602,
        7.5799
      ],
      "fact_recall": 1.0,
      "fact_hits": [
        "C66769",
        "MILD",
        "MODERATE",
        "SEVERE"
      ],
      "fact_misses": [],
      "answer_preview": "Based on the retrieved context, the variable **AESEV** (Severity/Intensity) in the AE domain uses the codelist **C66769** (Severity/Intensity Scale for Adverse Events).\n\nThe allowed values are:\n\n- **MILD**\n- **MODERATE**\n- **SEVERE**\n\n**Source:** [domains/AE/spec.md] — AESEV definition (Order 27, Label: Severity/Intensity, Type: Char, Controlled Terms: C66769, Role: Record Qualifier, Core: Perm).\n\n**Source:** [terminology/core/ae.md] — C66769 codelist values (MILD, MODERATE, SEVERE).",
      "usage": {
        "prompt_tokens": 15247,
        "completion_tokens": 148,
        "total_tokens": 15395
      },
      "model": "deepseek/deepseek-chat",
      "answer": "Based on the retrieved context, the variable **AESEV** (Severity/Intensity) in the AE domain uses the codelist **C66769** (Severity/Intensity Scale for Adverse Events).\n\nThe allowed values are:\n\n- **MILD**\n- **MODERATE**\n- **SEVERE**\n\n**Source:** [domains/AE/spec.md] — AESEV definition (Order 27, Label: Severity/Intensity, Type: Char, Controlled Terms: C66769, Role: Record Qualifier, Core: Perm).\n\n**Source:** [terminology/core/ae.md] — C66769 codelist values (MILD, MODERATE, SEVERE).",
      "elapsed_s": 3.45
    },
    {
      "id": "q17",
      "category": "mixed",
      "question": "How are date and time variables formatted in SDTM and what suffix do they use?",
      "source_recall": 1.0,
      "source_hits": [
        "chapters/ch04"
      ],
      "source_misses": [],
      "top5_sources": [
        "chapters/ch04_general_assumptions.md",
        "model/01_concepts_and_terms.md",
        "chapters/ch04_general_assumptions.md",
        "chapters/ch04_general_assumptions.md",
        "chapters/ch01_introduction.md"
      ],
      "top5_similarities": [
        0.763,
        0.6154,
        0.6041,
        0.5795,
        9.6467
      ],
      "fact_recall": 1.0,
      "fact_hits": [
        "ISO 8601",
        "DTC"
      ],
      "fact_misses": [],
      "answer_preview": "Date/time variables in SDTM are formatted according to the **ISO 8601 extended format** and use the suffix **DTC** (Date/Time Character).\n\n## Format\n\nSDTM date/time variables are stored as **character** (Char) data type and follow the ISO 8601 extended format pattern:\n\n```\nYYYY-MM-DDThh:mm:ss(.n+)?(((+|-)hh:mm)|Z)?\n```\n\nWhere:\n- **YYYY** = four-digit year\n- **MM** = two-digit month (01-12)\n- **DD** = two-digit day (01-31)\n- **T** = time designator (indicates time follows)\n- **hh** = two-digit hour (00-23, 24-hour clock only)\n- **mm** = two-digit minute (00-59)\n- **ss** = two-digit second (00-5",
      "usage": {
        "prompt_tokens": 16943,
        "completion_tokens": 708,
        "total_tokens": 17651
      },
      "model": "deepseek/deepseek-chat",
      "answer": "Date/time variables in SDTM are formatted according to the **ISO 8601 extended format** and use the suffix **DTC** (Date/Time Character).\n\n## Format\n\nSDTM date/time variables are stored as **character** (Char) data type and follow the ISO 8601 extended format pattern:\n\n```\nYYYY-MM-DDThh:mm:ss(.n+)?(((+|-)hh:mm)|Z)?\n```\n\nWhere:\n- **YYYY** = four-digit year\n- **MM** = two-digit month (01-12)\n- **DD** = two-digit day (01-31)\n- **T** = time designator (indicates time follows)\n- **hh** = two-digit hour (00-23, 24-hour clock only)\n- **mm** = two-digit minute (00-59)\n- **ss** = two-digit second (00-59)\n- **(.n+)?** = optional fractional seconds\n- **(((+|-)hh:mm)|Z)?** = optional time zone\n\n**[Source: chapters/ch04_general_assumptions.md -- 4.4.1 Formats for Date/Time Variables]**\n\nKey formatting rules:\n- **Hyphen delimiters** are required for date components (YYYY-MM-DD)\n- **Colon delimiters** are required for time components (hh:mm:ss)\n- **Spaces are not allowed** in any ISO 8601 representations\n- The **basic format** (without delimiters) must **not** be used\n- If no time component is present, the \"T\" designator must also be omitted\n\n**[Source: chapters/ch04_general_assumptions.md -- 4.4.1 Formats for Date/Time Variables]**\n\n## Precision Handling\n\nPrecision is inferred from the presence or absence of components (right truncation or hyphen for missing intermediate components):\n\n| Precision | ISO 8601 Example |\n|-----------|-----------------|\n| Date/time with fractional seconds | 2003-12-15T13:14:17.123 |\n| Date/time to nearest second | 2003-12-15T13:14:17 |\n| Date only (unknown time) | 2003-12-15 |\n| Year and month only | 2003-12 |\n| Year only | 2003 |\n| Unknown hour, known minutes | 2003-12-15T--:15 |\n| Unknown year, known month/day | --12-15 |\n\n**[Source: chapters/ch04_general_assumptions.md -- 4.4.2 Date/Time Precision]**\n\n## Suffix Convention\n\nThe SDTM fragment used for date/time character variables is **DTC**. This suffix appears in variables such as:\n\n- **VSDTC** — Date/Time of Measurements (Vital Signs) — Role: Timing, Core: Expected\n- **DMDTC** — Date/Time of Collection (Demographics) — Role: Timing, Core: Permissible\n- **SSDTC** — Date/Time of Assessment (Subject Status) — Role: Timing, Core: Expected\n\n**[Source: domains/VS/spec.md -- VSDTC; domains/DM/spec.md -- DMDTC; domains/SS/spec.md -- SSDTC]**\n\nAll DTC variables have:\n- **Type:** Char\n- **Controlled Terms:** ISO 8601 datetime or interval\n- **Role:** Timing",
      "elapsed_s": 7.84
    },
    {
      "id": "q18",
      "category": "mixed",
      "question": "Explain the MedDRA coding chain for adverse events from verbatim term to dictionary term.",
      "source_recall": 1.0,
      "source_hits": [
        "domains/AE/spec.md",
        "domains/AE/assumptions.md"
      ],
      "source_misses": [],
      "top5_sources": [
        "domains/AE/spec.md",
        "domains/AE/spec.md",
        "domains/AE/spec.md",
        "domains/AE/spec.md",
        "chapters/ch04_general_assumptions.md"
      ],
      "top5_similarities": [
        0.6135,
        0.5646,
        0.5637,
        0.5579,
        0.6726
      ],
      "fact_recall": 1.0,
      "fact_hits": [
        "AETERM",
        "AEMODIFY",
        "AEDECOD",
        "Preferred Term"
      ],
      "fact_misses": [],
      "answer_preview": "## MedDRA Coding Chain for Adverse Events\n\nThe MedDRA coding chain for adverse events in SDTM progresses from the verbatim collected term through multiple levels of dictionary-derived terms, as defined in the AE domain specification and general assumptions.\n\n### 1. **Verbatim Term (AETERM)**\n- **Label:** Reported Term for the Adverse Event\n- **Type:** Char\n- **Role:** Topic\n- **Core:** Req\n- **Controlled Terms:** (none)\n- **CDISC Notes:** Verbatim name of the event.\n- **Source:** [domains/AE/spec.md]\n\nThis is the raw, collected term from the CRF. It is the topic variable for the AE dataset and",
      "usage": {
        "prompt_tokens": 14356,
        "completion_tokens": 1530,
        "total_tokens": 15886
      },
      "model": "deepseek/deepseek-chat",
      "answer": "## MedDRA Coding Chain for Adverse Events\n\nThe MedDRA coding chain for adverse events in SDTM progresses from the verbatim collected term through multiple levels of dictionary-derived terms, as defined in the AE domain specification and general assumptions.\n\n### 1. **Verbatim Term (AETERM)**\n- **Label:** Reported Term for the Adverse Event\n- **Type:** Char\n- **Role:** Topic\n- **Core:** Req\n- **Controlled Terms:** (none)\n- **CDISC Notes:** Verbatim name of the event.\n- **Source:** [domains/AE/spec.md]\n\nThis is the raw, collected term from the CRF. It is the topic variable for the AE dataset and must always have a value **[Source: domains/AE/assumptions.md, item 2a]**.\n\n### 2. **Modified Reported Term (AEMODIFY) — Optional**\n- **Label:** Modified Reported Term\n- **Type:** Char\n- **Role:** Synonym Qualifier\n- **Core:** Perm\n- **Controlled Terms:** (none)\n- **Source:** [VARIABLE_INDEX.md — AE section]\n\nA permissible variable used when the sponsor's procedure permits modification of the verbatim term to aid in coding. If used, AEMODIFY contains the altered term before dictionary lookup **[Source: domains/AE/assumptions.md, item 2b]**.\n\n### 3. **Lowest Level Term (AELLT) and Code (AELLTCD)**\n- **AELLT:** Char, Variable Qualifier, Core: Exp, Controlled Terms: MedDRA\n- **AELLTCD:** Num, Variable Qualifier, Core: Exp, Controlled Terms: MedDRA\n- **Source:** [domains/AE/spec.md] [VARIABLE_INDEX.md — AE section]\n\nThe lowest level in the MedDRA hierarchy. Represents the most granular term available in the dictionary. The code (AELLTCD) is the dictionary-derived numeric code for this level **[Source: chapters/ch04_general_assumptions.md, §4.3.5]**.\n\n### 4. **Preferred Term (AEDECOD) and Code (AEPTCD)**\n- **AEDECOD:** Label: Dictionary-Derived Term, Char, Synonym Qualifier, Core: Req, Controlled Terms: MedDRA\n- **AEPTCD:** Num, Variable Qualifier, Core: Exp, Controlled Terms: MedDRA\n- **Source:** [domains/AE/spec.md]\n\nAEDECOD is the **required** dictionary-derived term, equivalent to the MedDRA Preferred Term (PT). It must always be populated. AEPTCD is the corresponding numeric code **[Source: domains/AE/assumptions.md, item 2c]**.\n\n### 5. **High Level Term (AEHLT) and Code (AEHLTCD)**\n- **AEHLT:** Char, Variable Qualifier, Core: Exp, Controlled Terms: MedDRA\n- **AEHLTCD:** Num, Variable Qualifier, Core: Exp, Controlled Terms: MedDRA\n- **Source:** [domains/AE/spec.md] [VARIABLE_INDEX.md — AE section]\n\nThe next level up in the MedDRA hierarchy, grouping related Preferred Terms. The code (AEHLTCD) is the dictionary-derived code for the high level term for the primary SOC **[Source: domains/AE/spec.md — AEHLTCD]**.\n\n### 6. **High Level Group Term (AEHLGT) and Code (AEHLGTCD)**\n- **AEHLGT:** Char, Variable Qualifier, Core: Exp, Controlled Terms: MedDRA\n- **AEHLGTCD:** Num, Variable Qualifier, Core: Exp, Controlled Terms: MedDRA\n- **Source:** [VARIABLE_INDEX.md — AE section]\n\nGroups related High Level Terms together in the MedDRA hierarchy.\n\n### 7. **Body System or Organ Class (AEBODSYS) and Code (AEBDSYCD)**\n- **AEBODSYS:** Char, Record Qualifier, Core: Exp, Controlled Terms: (none)\n- **AEBDSYCD:** Num, Variable Qualifier, Core: Exp, Controlled Terms: MedDRA\n- **Source:** [VARIABLE_INDEX.md — AE section]\n\nRepresents the System Organ Class (SOC) used for the sponsor's analysis and summary tables. This may differ from the primary SOC designated in MedDRA's standard hierarchy **[Source: chapters/ch04_general_assumptions.md, §4.3.5]**.\n\n### 8. **Primary System Organ Class (AESOC) and Code (AESOCCD)**\n- **AESOC:** Char, Variable Qualifier, Core: Exp, Controlled Terms: MedDRA\n- **AESOCCD:** Num, Variable Qualifier, Core: Exp, Controlled Terms: MedDRA\n- **Source:** [VARIABLE_INDEX.md — AE section]\n\nThe dictionary-derived primary SOC from MedDRA. In cases where the primary SOC was used for analysis, AEBODSYS and AESOC are the same **[Source: chapters/ch04_general_assumptions.md, §4.3.5]**.\n\n---\n\n### Summary of the Coding Chain\n\n```\nAETERM (verbatim)\n    │\n    ├── AEMODIFY (optional modification)\n    │\n    └── MedDRA Dictionary Lookup\n            │\n            ├── AELLT / AELLTCD  (Lowest Level Term)\n            ├── AEDECOD / AEPTCD (Preferred Term — REQUIRED)\n            ├── AEHLT / AEHLTCD  (High Level Term)\n            ├── AEHLGT / AEHLGTCD (High Level Group Term)\n            ├── AEBODSYS / AEBDSYCD (Body System/Organ Class — analysis SOC)\n            └── AESOC / AESOCCD (Primary System Organ Class)\n```\n\nThe sponsor is expected to provide the dictionary name and version (e.g., MedDRA) used to map the terms, utilizing the external codelist element in the Define-XML document **[Source: domains/AE/spec.md — AEDECOD]**.\n\n**Note:** The MedDRA dictionary name is defined in the Dictionary Name codelist (C66788) with submission value \"MedDRA\" (code C43820) **[Source: terminology/core/trial_design.md — Dictionary Name]**.\n\n### Example from AE Dataset\n\nFrom the AE example data **[Source: domains/AE/examples.md, Example 1]**:\n\n| AETERM | AEMODIFY | AEDECOD | AEBODSYS |\n|--------|----------|---------|----------|\n| POUNDING HEADACHE | Headache | Headache | Nervous system disorders |\n| BACK PAIN FOR 5 HOURS | Back pain | Back pain | Musculoskeletal and connective tissue disorders |\n| PULMONARY EMBOLISM | (null) | Pulmonary embolism | Vascular disorders |\n\nThis shows the progression: verbatim term → optional modification → MedDRA Preferred Term (AEDECOD) → Body System/Organ Class (AEBODSYS).",
      "elapsed_s": 14.97
    },
    {
      "id": "q19",
      "category": "mixed",
      "question": "What controlled terminology codelist is used for DSDECOD when DSCAT equals 'DISPOSITION EVENT', and list specific CDISC Submission Values from that codelist for reasons of non-completion.",
      "source_recall": 1.0,
      "source_hits": [
        "domains/DS/assumptions.md",
        "terminology/core/disposition.md"
      ],
      "source_misses": [],
      "top5_sources": [
        "domains/DS/spec.md",
        "terminology/core/disposition.md",
        "domains/DS/assumptions.md",
        "domains/DS/assumptions.md",
        "domains/DS/spec.md"
      ],
      "top5_similarities": [
        0.8036,
        0.634,
        0.7554,
        0.7186,
        0.7248
      ],
      "fact_recall": 1.0,
      "fact_hits": [
        "NCOMPLT",
        "C66727"
      ],
      "fact_misses": [],
      "answer_preview": "Based on the retrieved context, when `DSCAT` = `\"DISPOSITION EVENT\"`, the controlled terminology codelist used for `DSDECOD` is **NCOMPLT** (Completion/Reason for Non-Completion, C66727).\n\n**[Source: domains/DS/assumptions.md item_3b]**\n\nThe context provides the following specific CDISC Submission Values from the NCOMPLT codelist for reasons of non-completion:\n\n- **COMPLETED** — used when `DSTERM` = `\"COMPLETED\"` **[Source: domains/DS/assumptions.md item_3b.i]**\n- **LOST TO FOLLOW-UP** — used when a subject did not complete (e.g., `DSTERM` = `\"Subject moved\"` is coded to this value) **[Source:",
      "usage": {
        "prompt_tokens": 11526,
        "completion_tokens": 323,
        "total_tokens": 11849
      },
      "model": "deepseek/deepseek-chat",
      "answer": "Based on the retrieved context, when `DSCAT` = `\"DISPOSITION EVENT\"`, the controlled terminology codelist used for `DSDECOD` is **NCOMPLT** (Completion/Reason for Non-Completion, C66727).\n\n**[Source: domains/DS/assumptions.md item_3b]**\n\nThe context provides the following specific CDISC Submission Values from the NCOMPLT codelist for reasons of non-completion:\n\n- **COMPLETED** — used when `DSTERM` = `\"COMPLETED\"` **[Source: domains/DS/assumptions.md item_3b.i]**\n- **LOST TO FOLLOW-UP** — used when a subject did not complete (e.g., `DSTERM` = `\"Subject moved\"` is coded to this value) **[Source: domains/DS/assumptions.md item_3b.ii]**\n\n**Note:** The NCOMPLT codelist is extensible, meaning additional sponsor-specific terms may be used. The context also mentions that `DSDECOD` uses different codelists depending on `DSCAT`:\n- `DSCAT` = `\"PROTOCOL MILESTONE\"` → codelist **PROTMLST** (C114118)\n- `DSCAT` = `\"OTHER EVENT\"` → sponsor terminology (not a CDISC codelist)\n\n**[Source: domains/DS/assumptions.md item_3c, 3d; domains/DS/spec.md DSDECOD]**",
      "elapsed_s": 4.62
    },
    {
      "id": "q20",
      "category": "mixed",
      "question": "In the DM domain, what is the difference between the RFSTDTC/RFENDTC reference period pair and the RFXSTDTC/RFXENDTC pair, and under what circumstances will RFSTDTC be null?",
      "source_recall": 1.0,
      "source_hits": [
        "domains/DM/assumptions.md",
        "domains/DM/spec.md"
      ],
      "source_misses": [],
      "top5_sources": [
        "domains/DM/spec.md",
        "domains/DM/spec.md",
        "domains/DM/spec.md",
        "domains/DM/spec.md",
        "domains/DM/assumptions.md"
      ],
      "top5_similarities": [
        0.624,
        0.5839,
        0.55,
        0.547,
        0.6645
      ],
      "fact_recall": 1.0,
      "fact_hits": [
        "sponsor-defined",
        "screen failure"
      ],
      "fact_misses": [],
      "answer_preview": "## Difference Between RFSTDTC/RFENDTC and RFXSTDTC/RFXENDTC\n\n### RFSTDTC / RFENDTC (Subject Reference Start/End Date/Time)\n\n- **Role:** Record Qualifier\n- **Core:** Exp (Expected)\n- **Definition:** Sponsor-defined reference period, usually representing the date/time of first and last study exposure. However, this pair is **open to customization** — the sponsor may define the start differently depending on study design. For example, in studies with a washout period before randomization or a required medical procedure during screening (e.g., biopsy), RFSTDTC may be the enrollment date, which is ",
      "usage": {
        "prompt_tokens": 12069,
        "completion_tokens": 726,
        "total_tokens": 12795
      },
      "model": "deepseek/deepseek-chat",
      "answer": "## Difference Between RFSTDTC/RFENDTC and RFXSTDTC/RFXENDTC\n\n### RFSTDTC / RFENDTC (Subject Reference Start/End Date/Time)\n\n- **Role:** Record Qualifier\n- **Core:** Exp (Expected)\n- **Definition:** Sponsor-defined reference period, usually representing the date/time of first and last study exposure. However, this pair is **open to customization** — the sponsor may define the start differently depending on study design. For example, in studies with a washout period before randomization or a required medical procedure during screening (e.g., biopsy), RFSTDTC may be the enrollment date, which is prior to first dose. Because study day values are calculated using RFSTDTC, in such cases study days would not be based on the date of first dose. **[Source: domains/DM/assumptions.md — item_10.a]**\n\n### RFXSTDTC / RFXENDTC (Date/Time of First/Last Study Treatment)\n\n- **Role:** Record Qualifier\n- **Core:** Exp (Expected)\n- **Definition:** This pair defines a **consistent reference period for all interventional studies** and is **not open to customization**. RFXSTDTC and RFXENDTC **always** represent the date/time of first and last study exposure. This guarantees that a reviewer will always be able to reference the first and last study exposure period. RFXSTDTC should be the same as SESTDTC for the first treatment element in SE; RFXENDTC may often be the same as SEENDTC for the last treatment element. **[Source: domains/DM/assumptions.md — item_10.b]**\n\n### Key Differences Summary\n\n| Aspect | RFSTDTC/RFENDTC | RFXSTDTC/RFXENDTC |\n|--------|-----------------|-------------------|\n| Definition | Sponsor-defined; customizable | Always first/last study exposure |\n| Consistency | May vary by study design | Consistent across all interventional studies |\n| Study Day Basis | Used to calculate study day variables (--DY) | Not used for study day calculation |\n| Customization | Open to customization | Not open to customization |\n\n---\n\n## When RFSTDTC Will Be Null\n\nRFSTDTC will be null for subjects who are **not exposed to study treatment**, specifically:\n\n1. **Screen failures** — subjects who are ineligible for treatment (e.g., `ARMNRS = \"SCREEN FAILURE\"`)\n2. **Enrolled but not assigned** — subjects who were enrolled but not assigned to an arm (e.g., `ARMNRS = \"NOT ASSIGNED\"`)\n3. **Randomized but not treated** — subjects who were randomized but did not receive treatment (e.g., `ARMNRS = \"NOT TREATED\"`)\n\n**[Source: domains/DM/assumptions.md — item_9]**\n\nFor studies with designs that include a substantial portion of subjects not expected to be treated (e.g., non-interventional or observational studies, studies with a no-treatment arm, or studies with a delay between randomization and treatment), a different protocol milestone may be chosen as the starting point for study day variables. **[Source: domains/DM/assumptions.md — item_9]**\n\nAdditionally, the CDISC Notes for RFSTDTC state: \"See assumption 9 for additional detail on when RFSTDTC may be null.\" **[Source: domains/DM/spec.md — RFSTDTC]**",
      "elapsed_s": 7.26
    },
    {
      "id": "q42",
      "category": "mixed",
      "question": "In the LB domain, how are normal ranges represented using LBORNRLO and LBORNRHI, and what is the LBNRIND variable used for?",
      "source_recall": 1.0,
      "source_hits": [
        "domains/LB/spec.md",
        "domains/LB/assumptions.md"
      ],
      "source_misses": [],
      "top5_sources": [
        "domains/LB/spec.md",
        "domains/LB/spec.md",
        "domains/LB/spec.md",
        "domains/LB/spec.md",
        "domains/LB/assumptions.md"
      ],
      "top5_similarities": [
        0.7713,
        0.6935,
        0.6933,
        0.6692,
        0.764
      ],
      "fact_recall": 1.0,
      "fact_hits": [
        "LBORNRLO",
        "LBORNRHI",
        "LBNRIND"
      ],
      "fact_misses": [],
      "answer_preview": "Based on the retrieved context, here is how normal ranges are represented in the LB domain:\n\n## LBORNRLO and LBORNRHI\n\n- **LBORNRLO** (Reference Range Lower Limit in Orig Unit): A Char variable with the role of Variable Qualifier and a Core of Expected. It represents the lower end of the reference range for continuous measurements in original units. It should be populated only for continuous results. **[Source: domains/LB/spec.md -- LBORNRLO]**\n\n- **LBORNRHI** (Reference Range Upper Limit in Orig Unit): A Char variable with the role of Variable Qualifier and a Core of Expected. It represents t",
      "usage": {
        "prompt_tokens": 12947,
        "completion_tokens": 516,
        "total_tokens": 13463
      },
      "model": "deepseek/deepseek-chat",
