{
  "summary": {
    "n_questions": 140,
    "model": "deepseek/deepseek-chat",
    "threshold": 0.85,
    "source_recall_avg": 0.7643,
    "source_recall_by_category": {
      "concept": 0.92,
      "cross_domain": 0.53,
      "mixed": 0.8,
      "single_domain": 0.9375
    },
    "fact_recall_avg": 0.8285,
    "fact_recall_by_category": {
      "concept": 0.992,
      "cross_domain": 0.6833,
      "mixed": 0.94,
      "single_domain": 0.8381
    },
    "overall": 0.7964,
    "total_tokens": 1808355,
    "verdict": "FAIL",
    "top_k": 15,
    "prompt_guardrail": false
  },
  "results": [
    {
      "id": "q01",
      "category": "single_domain",
      "question": "What is AETERM and what are its variable attributes in the AE domain?",
      "source_recall": 1.0,
      "source_hits": [
        "domains/AE/spec.md"
      ],
      "source_misses": [],
      "top5_sources": [
        "domains/AE/assumptions.md",
        "domains/AE/assumptions.md",
        "domains/AE/spec.md",
        "domains/AE/assumptions.md",
        "domains/AE/spec.md"
      ],
      "top5_similarities": [
        0.6641,
        0.6105,
        0.5884,
        0.579,
        0.5778
      ],
      "fact_recall": 1.0,
      "fact_hits": [
        "Topic",
        "Char",
        "Req",
        "Verbatim"
      ],
      "fact_misses": [],
      "answer_preview": "Based on the provided context, AETERM is the Reported Term for the Adverse Event in the AE domain.\n\n**Variable Attributes:**\n- **Label:** Reported Term for the Adverse Event\n- **Type:** Char\n- **Controlled Terms:** (none specified)\n- **Role:** Topic\n- **Core:** Req\n- **CDISC Notes:** Verbatim name of the event.\n\n**[Source: domains/AE/spec.md -- AETERM]**\n\nAETERM captures the verbatim term collected for the event. It is the topic variable for the AE dataset and is a required variable that must have a value. **[Source: domains/AE/assumptions.md -- item_2a]**",
      "usage": {
        "prompt_tokens": 10356,
        "completion_tokens": 145,
        "total_tokens": 10501
      },
      "model": "deepseek/deepseek-chat",
      "answer": "Based on the provided context, AETERM is the Reported Term for the Adverse Event in the AE domain.\n\n**Variable Attributes:**\n- **Label:** Reported Term for the Adverse Event\n- **Type:** Char\n- **Controlled Terms:** (none specified)\n- **Role:** Topic\n- **Core:** Req\n- **CDISC Notes:** Verbatim name of the event.\n\n**[Source: domains/AE/spec.md -- AETERM]**\n\nAETERM captures the verbatim term collected for the event. It is the topic variable for the AE dataset and is a required variable that must have a value. **[Source: domains/AE/assumptions.md -- item_2a]**",
      "elapsed_s": 5.29
    },
    {
      "id": "q02",
      "category": "single_domain",
      "question": "What are the required (Core=Req) variables in the DM domain?",
      "source_recall": 1.0,
      "source_hits": [
        "domains/DM/spec.md"
      ],
      "source_misses": [],
      "top5_sources": [
        "domains/DM/assumptions.md",
        "chapters/ch04_general_assumptions.md",
        "chapters/ch04_general_assumptions.md",
        "model/01_concepts_and_terms.md",
        "domains/TM/spec.md"
      ],
      "top5_similarities": [
        0.6081,
        0.5671,
        0.5064,
        0.5049,
        0.4935
      ],
      "fact_recall": 0.8571,
      "fact_hits": [
        "STUDYID",
        "DOMAIN",
        "USUBJID",
        "SUBJID",
        "SITEID",
        "COUNTRY"
      ],
      "fact_misses": [
        "SEX"
      ],
      "answer_preview": "Based on the DM domain specification, the required (Core=Req) variables in the DM domain are:\n\n| Variable | Label | Type | Role |\n|----------|-------|------|------|\n| STUDYID | Study Identifier | Char | Identifier |\n| DOMAIN | Domain Abbreviation | Char | Identifier |\n| USUBJID | Unique Subject Identifier | Char | Identifier |\n| SUBJID | Subject Identifier for the Study | Char | Topic |\n| SITEID | Study Site Identifier | Char | Record Qualifier |\n| RFSTDTC | Subject Reference Start Date/Time | Char | Timing |\n| RFENDTC | Subject Reference End Date/Time | Char | Timing |\n| ARMCD | Planned Arm C",
      "usage": {
        "prompt_tokens": 10815,
        "completion_tokens": 405,
        "total_tokens": 11220
      },
      "model": "deepseek/deepseek-chat",
      "answer": "Based on the DM domain specification, the required (Core=Req) variables in the DM domain are:\n\n| Variable | Label | Type | Role |\n|----------|-------|------|------|\n| STUDYID | Study Identifier | Char | Identifier |\n| DOMAIN | Domain Abbreviation | Char | Identifier |\n| USUBJID | Unique Subject Identifier | Char | Identifier |\n| SUBJID | Subject Identifier for the Study | Char | Topic |\n| SITEID | Study Site Identifier | Char | Record Qualifier |\n| RFSTDTC | Subject Reference Start Date/Time | Char | Timing |\n| RFENDTC | Subject Reference End Date/Time | Char | Timing |\n| ARMCD | Planned Arm Code | Char | Record Qualifier |\n| ARM | Description of Planned Arm | Char | Synonym Qualifier |\n| ACTARMCD | Actual Arm Code | Char | Record Qualifier |\n| ACTARM | Description of Actual Arm | Char | Synonym Qualifier |\n| COUNTRY | Country | Char | Record Qualifier |\n| DMDTC | Date/Time of Collection | Char | Timing |\n| DMDY | Study Day of Collection | Num | Timing |\n\n**[Source: domains/DM/spec.md]**\n\n**Key notes:**\n- Required variables must always be included in the dataset and cannot be null for any record **[Source: chapters/ch04_general_assumptions.md §4.1.5]**\n- The DOMAIN variable is a two-character abbreviation for the domain, which must be \"DM\" **[Source: domains/DM/spec.md — DOMAIN]**\n- DM is a special-purpose domain that serves as the parent domain for all other observations for human clinical subjects **[Source: domains/DM/assumptions.md — overview]**\n- Unlike most other domains, DM variables (other than DMDTC and DMDY) are not prefixed with the domain identifier **[Source: chapters/ch04_general_assumptions.md §4.2.2]**",
      "elapsed_s": 5.37
    },
    {
      "id": "q03",
      "category": "single_domain",
      "question": "What are the key assumptions for adverse event data collection and coding?",
      "source_recall": 1.0,
      "source_hits": [
        "domains/AE/assumptions.md"
      ],
      "source_misses": [],
      "top5_sources": [
        "domains/AE/assumptions.md",
        "domains/AE/assumptions.md",
        "domains/AE/assumptions.md",
        "domains/AE/assumptions.md",
        "domains/CE/assumptions.md"
      ],
      "top5_similarities": [
        0.5919,
        0.5755,
        0.5716,
        0.5608,
        0.5364
      ],
      "fact_recall": 1.0,
      "fact_hits": [
        "AETERM",
        "MedDRA",
        "AEDECOD"
      ],
      "fact_misses": [],
      "answer_preview": "# Key Assumptions for Adverse Event Data Collection and Coding\n\nBased on the SDTMIG v3.4 knowledge base, here are the key assumptions for adverse event (AE) data collection and coding:\n\n## 1. Scope and Definition of Adverse Events\n\n- The AE dataset includes clinical data describing \"any untoward medical occurrence in a patient or clinical investigation subject administered a pharmaceutical product\" (ICH E2A definition) **[Source: domains/AE/assumptions.md — item_1]**\n- Sponsors may extend or limit the scope of AE collection in consultation with regulatory authorities (e.g., collecting pre-trea",
      "usage": {
        "prompt_tokens": 16179,
        "completion_tokens": 1359,
        "total_tokens": 17538
      },
      "model": "deepseek/deepseek-chat",
      "answer": "# Key Assumptions for Adverse Event Data Collection and Coding\n\nBased on the SDTMIG v3.4 knowledge base, here are the key assumptions for adverse event (AE) data collection and coding:\n\n## 1. Scope and Definition of Adverse Events\n\n- The AE dataset includes clinical data describing \"any untoward medical occurrence in a patient or clinical investigation subject administered a pharmaceutical product\" (ICH E2A definition) **[Source: domains/AE/assumptions.md — item_1]**\n- Sponsors may extend or limit the scope of AE collection in consultation with regulatory authorities (e.g., collecting pre-treatment events, excluding efficacy endpoints) **[Source: domains/AE/assumptions.md — item_1]**\n- The events included in the AE dataset must be consistent with protocol requirements **[Source: domains/AE/assumptions.md — item_1]**\n\n## 2. AE Description and Coding\n\n| Variable | Role | Core | Description |\n|----------|------|------|-------------|\n| **AETERM** | Topic | Req | Verbatim term collected for the event; must have a value **[Source: domains/AE/assumptions.md — item_2a]** |\n| **AEMODIFY** | Synonym Qualifier | Perm | Modified verbatim term for coding purposes; populate per sponsor procedures **[Source: domains/AE/assumptions.md — item_2b]** |\n| **AEDECOD** | Synonym Qualifier | Req | Preferred term derived from coding dictionary (e.g., MedDRA); must have a value **[Source: domains/AE/assumptions.md — item_2c]** |\n| **AEBODSYS** | Record Qualifier | Exp | System organ class (SOC) from coding dictionary; may differ from primary SOC **[Source: domains/AE/assumptions.md — item_2d]** |\n\n- The sponsor must provide the dictionary name and version in Define-XML using the external codelist element **[Source: domains/AE/assumptions.md — item_2c]**\n\n## 3. Prespecified Terms vs. Free-Text Collection\n\n- AEs are generally collected in 2 ways: free text or prespecified list of terms **[Source: domains/AE/assumptions.md — item_4a]**\n- **AEPRESP = \"Y\"** indicates the event was prespecified on the CRF **[Source: domains/AE/assumptions.md — item_4a]**\n- For prespecified AEs that did NOT occur, use a Findings About Events (FA) dataset with `--OCCUR` rather than AE records **[Source: domains/AE/assumptions.md — item_4b]**\n- If both collection methods are used: AEPRESP = \"Y\" for prespecified events, null for free-text events **[Source: domains/AE/assumptions.md — item_4c]**\n- If all AEs are free-text, AEPRESP may be omitted (Permissible) **[Source: domains/AE/assumptions.md — item_4c]**\n- Do NOT include records indicating \"no adverse events\" — only include records for events that actually occurred **[Source: domains/AE/assumptions.md — item_4d]**\n\n## 4. Seriousness Classification\n\n- If \"Serious?\" = \"No\", seriousness category variables (AESCAN, AESCONG, etc.) may be null **[Source: domains/AE/assumptions.md — item_7a]**\n- If \"Serious?\" = \"Yes\", at least one seriousness category variable must have \"Y\" **[Source: domains/AE/assumptions.md — item_7a]**\n- If each seriousness category is collected individually, all category variables are populated and AESER is derived **[Source: domains/AE/assumptions.md — item_7a]**\n- AESCAN (Involves cancer) and AESOD (Occurred with overdose) are not part of ICH definition but are available for pre-ICH studies **[Source: domains/AE/assumptions.md — item_7b]**\n- \"Other Medically Important Serious Event\" descriptions go in SUPPAE using QNAM code AEOSOSP **[Source: domains/AE/assumptions.md — item_7c]**\n\n## 5. Severity and Toxicity Grading\n\n- Use **AETOXGR** for standard toxicity scales (e.g., CTCAE v3.0) instead of AESEV **[Source: domains/AE/assumptions.md — item_7d]**\n- In most cases, populate either AESEV or AETOXGR, not both (exceptions possible) **[Source: domains/AE/assumptions.md — item_7d]**\n\n## 6. Record Structure\n\n- **1 record per adverse event per subject** is the standard structure **[Source: domains/AE/assumptions.md — item_7e]**\n- The sponsor defines what constitutes \"an event\" (described in protocol) **[Source: domains/AE/assumptions.md — item_7e]**\n- Approaches include:\n  - One record per event \"collapsed\" to highest severity/causality/seriousness\n  - One record per event with changes submitted as separate events or in FA domain\n  - Other approaches as defined by sponsor **[Source: domains/AE/assumptions.md — item_7e]**\n\n## 7. Disallowed Variables\n\nThe following Events class qualifiers are **not permitted** in AE domain:\n- `--OCCUR` (Occurrence Indicator)\n- `--STAT` (Completion Status)\n- `--REASND` (Reason Not Done)\n\nThese are excluded because AE domain contains only records for events that actually occurred **[Source: domains/AE/assumptions.md — item_10]**\n\n## 8. Relationship to Other Domains\n\n- **Clinical Events (CE):** Events of clinical interest that are NOT AEs should be in CE domain. All adverse events must be in AE domain **[Source: domains/CE/assumptions.md — item_3]**\n- **Findings About (FA):** Use FA for prespecified AE occurrence data, severity assessments over time, or other data that describe aspects of AEs without being the AE itself **[Source: domains/FA/examples.md — Example 4, Example 6]**\n- **RELREC:** May be used to relate AE records to FA records when needed **[Source: domains/AE/examples.md — Example 3]**",
      "elapsed_s": 14.05
    },
    {
      "id": "q04",
      "category": "single_domain",
      "question": "What is the purpose of the TV (Trial Visits) domain and what variables does it contain?",
      "source_recall": 1.0,
      "source_hits": [
        "domains/TV/spec.md"
      ],
      "source_misses": [],
      "top5_sources": [
        "domains/SV/assumptions.md",
        "VARIABLE_INDEX.md",
        "domains/TV/examples.md",
        "domains/TV/assumptions.md",
        "domains/TA/spec.md"
      ],
      "top5_similarities": [
        0.6873,
        0.6708,
        0.6648,
        0.6384,
        0.6357
      ],
      "fact_recall": 1.0,
      "fact_hits": [
        "VISITNUM",
        "VISIT"
      ],
      "fact_misses": [],
      "answer_preview": "Based on the retrieved context, the **TV (Trial Visits)** domain is a **Trial Design** domain that defines the **protocol-defined planned schedule of subject encounters** (clinical encounters) at the healthcare facility where the study is being conducted.\n\n## Purpose\n\nThe TV domain describes the planned visits for a trial, including their timing rules. It allows comparison between a subject's actual visits (recorded in domains like SV - Subject Visits) and the planned schedule. The domain can represent:\n- Physical clinic visits\n- Visits that span multiple physical encounters (e.g., screening d",
      "usage": {
        "prompt_tokens": 11464,
        "completion_tokens": 923,
        "total_tokens": 12387
      },
      "model": "deepseek/deepseek-chat",
      "answer": "Based on the retrieved context, the **TV (Trial Visits)** domain is a **Trial Design** domain that defines the **protocol-defined planned schedule of subject encounters** (clinical encounters) at the healthcare facility where the study is being conducted.\n\n## Purpose\n\nThe TV domain describes the planned visits for a trial, including their timing rules. It allows comparison between a subject's actual visits (recorded in domains like SV - Subject Visits) and the planned schedule. The domain can represent:\n- Physical clinic visits\n- Visits that span multiple physical encounters (e.g., screening data collected over several clinic visits)\n- Portions of extended physical visits (e.g., in-patient stays)\n- Diary data or other data collected outside a clinic, described as \"visits\" if desired\n\n**[Source: domains/TV/assumptions.md — overview]**\n**[Source: domains/TV/examples.md — Trial Visits Issues]**\n\n## Variables\n\nBased on the specification and assumptions, the TV domain contains the following key variables:\n\n| Variable | Label | Type | Role | Core | Notes |\n|----------|-------|------|------|------|-------|\n| **STUDYID** | Study Identifier | Char | Identifier | Req | Standard identifier |\n| **DOMAIN** | Domain Abbreviation | Char | Identifier | Req | Always \"TV\" |\n| **VISITNUM** | Visit Number | Num | Identifier | Req | Numeric, used for sorting; should match planned chronological order |\n| **VISIT** | Visit Name | Char | Topic | Req | Character name from the protocol |\n| **VISITDY** | Planned Study Day of Visit | Num | Timing | Perm | Planned study day of the start of the visit |\n| **ARMCD** | Planned Arm Code | Char | Qualifier | Perm | Populated if visit schedules differ by arm; blank if same for all arms |\n| **ARM** | Description of Planned Arm | Char | Qualifier | Perm | Corresponding arm description |\n| **TVSTRL** | Visit Start Rule | Char | Rule | Req | Describes when a visit should occur (e.g., \"Start of Screen Epoch\", \"1 week after start of Treatment Epoch\") |\n| **TVENRL** | Visit End Rule | Char | Rule | Perm | Describes when a visit should end (e.g., \"1 hour after start of Visit\") |\n\n**[Source: VARIABLE_INDEX.md — TV — Trial Visits]**\n**[Source: domains/TV/spec.md — Related Domains]**\n**[Source: domains/TV/assumptions.md — item_1, item_3]**\n\n## Key Assumptions\n\n1. **Structure**: Generally \"One Record per Planned Visit per Arm.\" For blinded trials with identical visit schedules across arms, ARMCD should be left blank. If schedules differ by arm, ARMCD and ARM must be populated for all records. **[Source: domains/TV/assumptions.md — item_1]**\n\n2. **Visit Start Rules (TVSTRL)**: Should reflect the wording in the protocol. In many trials, all visits are scheduled relative to study day 1 (RFSTDTC), making VISITDY a useful special-case representation of TVSTRL. **[Source: domains/TV/assumptions.md — item_3]**\n\n3. **Visit End Rules (TVENRL)**: Similar to element end rules, describing when a visit should end. May be expressed relative to the start or end of an element/epoch, or relative to the start of the visit. **[Source: domains/TV/examples.md — Trial Visit Rules]**\n\n4. **Contingent Visits**: Additional clinic visits triggered by events or disease milestones may be included in the TV table with rules describing when they occur. **[Source: domains/TV/examples.md — Contingent Visits]**\n\n## Related Domains\n\nThe TV domain is part of the Trial Design class and relates to:\n- **TA** (Trial Arms) — visits reference arms\n- **TE** (Trial Elements) — planned visits vs actual subject elements\n- **TD** (Trial Disease Assessments), **TM** (Trial Disease Milestones), **TI** (Trial Inclusion/Exclusion Criteria), **TS** (Trial Summary)\n\n**[Source: domains/TV/spec.md — Related Domains]**\n**[Source: domains/TA/spec.md — Related Domains]**",
      "elapsed_s": 9.82
    },
    {
      "id": "q05",
      "category": "single_domain",
      "question": "In the PE (Physical Examination) domain, what is the structure of the dataset, what is the role of the PETESTCD variable, and what value should PETESTCD have when the results of the entire physical examination are represented in one record?",
      "source_recall": 1.0,
      "source_hits": [
        "domains/PE/spec.md"
      ],
      "source_misses": [],
      "top5_sources": [
        "domains/PE/spec.md",
        "domains/PE/spec.md",
        "VARIABLE_INDEX.md",
        "domains/PE/examples.md",
        "domains/PE/assumptions.md"
      ],
      "top5_similarities": [
        0.731,
        0.7026,
        0.6909,
        0.6542,
        0.6236
      ],
      "fact_recall": 1.0,
      "fact_hits": [
        "PETESTCD",
        "Topic",
        "PHYSEXAM"
      ],
      "fact_misses": [],
      "answer_preview": "Based on the retrieved context, here is the structure of the PE domain, the role of PETESTCD, and the specific value to use when representing the entire exam in one record.\n\n### PE Domain Structure\n\nThe PE domain is a Findings class domain. Its structure includes standard identifiers, topic variables, qualifiers, and timing variables. Key variables include:\n\n- **Identifiers:** STUDYID, DOMAIN, USUBJID, PESEQ (Sequence Number), PEGRPID (Group ID), PESPID (Sponsor-Defined Identifier) **[Source: VARIABLE_INDEX.md]**\n- **Topic Variable:** PETESTCD (Body System Examined Short Name) **[Source: domai",
      "usage": {
        "prompt_tokens": 15428,
        "completion_tokens": 589,
        "total_tokens": 16017
      },
      "model": "deepseek/deepseek-chat",
      "answer": "Based on the retrieved context, here is the structure of the PE domain, the role of PETESTCD, and the specific value to use when representing the entire exam in one record.\n\n### PE Domain Structure\n\nThe PE domain is a Findings class domain. Its structure includes standard identifiers, topic variables, qualifiers, and timing variables. Key variables include:\n\n- **Identifiers:** STUDYID, DOMAIN, USUBJID, PESEQ (Sequence Number), PEGRPID (Group ID), PESPID (Sponsor-Defined Identifier) **[Source: VARIABLE_INDEX.md]**\n- **Topic Variable:** PETESTCD (Body System Examined Short Name) **[Source: domains/PE/spec.md]**\n- **Synonym Qualifier:** PETEST (Body System Examined) **[Source: domains/PE/spec.md]**\n- **Result Qualifiers:** PEORRES (Verbatim Examination Finding), PESTRESC (Character Result/Finding in Std Format) **[Source: VARIABLE_INDEX.md]**\n- **Record Qualifiers:** PELOC (Location of Physical Exam Finding), PEBODSYS (Body System or Organ Class), PESTAT (Completion Status), PEREASND (Reason Not Examined) **[Source: VARIABLE_INDEX.md]**\n- **Timing:** PEDTC (Date/Time of Examination), PEDY (Study Day of Examination) **[Source: domains/PE/spec.md]**\n\n### Role of PETESTCD\n\n- **Label:** Body System Examined Short Name **[Source: domains/PE/spec.md]**\n- **Type:** Char **[Source: domains/PE/spec.md]**\n- **Role:** Topic **[Source: domains/PE/spec.md]**\n- **Core:** Req (Required) **[Source: domains/PE/spec.md]**\n- **Controlled Terms:** None specified **[Source: domains/PE/spec.md]**\n\nPETESTCD serves as the **Topic variable** for the PE domain. It identifies the specific body system or part that was examined. The CDISC Notes specify that it can be used as a column name when converting a dataset from a vertical to a horizontal format. The value cannot be longer than 8 characters, cannot start with a number, and can only contain letters, numbers, or underscores. Examples include \"HEAD\" and \"ENT\" **[Source: domains/PE/spec.md]**.\n\n### Value for a Single Record Representing the Entire Exam\n\nWhen the results of the entire physical examination are represented in a single record, the value for **PETESTCD** should be **\"PHYSEXAM\"** **[Source: domains/PE/spec.md]**. Correspondingly, the **PETEST** variable should be populated with **\"Physical Examination\"** **[Source: domains/PE/spec.md]**.",
      "elapsed_s": 6.58
    },
    {
      "id": "q21",
      "category": "single_domain",
      "question": "What is the LBTESTCD variable in the LB (Laboratory Test Results) domain? Describe its role, controlled terminology codelist code, and naming constraints.",
      "source_recall": 1.0,
      "source_hits": [
        "domains/LB/spec.md"
      ],
      "source_misses": [],
      "top5_sources": [
        "domains/LB/spec.md",
        "domains/LB/spec.md",
        "domains/LB/assumptions.md",
        "domains/LB/spec.md",
        "domains/LB/spec.md"
      ],
      "top5_similarities": [
        0.7837,
        0.7576,
        0.7499,
        0.7118,
        0.7058
      ],
      "fact_recall": 1.0,
      "fact_hits": [
        "Topic",
        "C65047",
        "8 characters"
      ],
      "fact_misses": [],
      "answer_preview": "## LBTESTCD — Lab Test or Examination Short Name\n\nBased on the SDTMIG v3.4 knowledge base:\n\n### Variable Definition\n\n| Attribute | Value |\n|-----------|-------|\n| **Label** | Lab Test or Examination Short Name |\n| **Type** | Char |\n| **Role** | Topic |\n| **Core** | Req |\n| **Controlled Terms** | C65047 (Laboratory Test Code) |\n\n**[Source: domains/LB/spec.md — LBTESTCD]**\n\n### CDISC Notes\n\nThe short name of the measurement, test, or examination described in LBTEST. It can be used as a column name when converting a dataset from a vertical to a horizontal format.\n\n**[Source: domains/LB/spec.md — ",
      "usage": {
        "prompt_tokens": 12125,
        "completion_tokens": 364,
        "total_tokens": 12489
      },
      "model": "deepseek/deepseek-chat",
      "answer": "## LBTESTCD — Lab Test or Examination Short Name\n\nBased on the SDTMIG v3.4 knowledge base:\n\n### Variable Definition\n\n| Attribute | Value |\n|-----------|-------|\n| **Label** | Lab Test or Examination Short Name |\n| **Type** | Char |\n| **Role** | Topic |\n| **Core** | Req |\n| **Controlled Terms** | C65047 (Laboratory Test Code) |\n\n**[Source: domains/LB/spec.md — LBTESTCD]**\n\n### CDISC Notes\n\nThe short name of the measurement, test, or examination described in LBTEST. It can be used as a column name when converting a dataset from a vertical to a horizontal format.\n\n**[Source: domains/LB/spec.md — LBTESTCD]**\n\n### Naming Constraints\n\nThe value in LBTESTCD **cannot**:\n- Be longer than **8 characters**\n- Start with a number (e.g., `\"1TEST\"` is not valid)\n- Contain characters other than **letters, numbers, or underscores**\n\n**Examples:** `\"ALT\"`, `\"LDH\"`\n\n**[Source: domains/LB/spec.md — LBTESTCD]**\n\n### Controlled Terminology\n\nLBTESTCD uses codelist **C65047** (Laboratory Test Code). The full list of permitted values is available in the terminology file at:\n\n**[Source: domains/LB/spec.md — Controlled Terminology → Laboratory Test Code (C65047)]**\n\nThe corresponding LBTEST (Lab Test or Examination Name) uses codelist **C67154** (Laboratory Test Name) and serves as the Synonym Qualifier for LBTESTCD.\n\n**[Source: domains/LB/spec.md — LBTEST]**",
      "elapsed_s": 4.79
    },
    {
      "id": "q22",
      "category": "single_domain",
      "question": "What is the VS (Vital Signs) domain and what are some examples of VSTESTCD values? Include the codelist code.",
      "source_recall": 1.0,
      "source_hits": [
        "domains/VS/spec.md"
      ],
      "source_misses": [],
      "top5_sources": [
        "domains/VS/spec.md",
        "domains/VS/assumptions.md",
        "domains/VS/spec.md",
        "domains/VS/spec.md",
        "VARIABLE_INDEX.md"
      ],
      "top5_similarities": [
        0.7384,
        0.6914,
        0.67,
        0.6467,
        0.6305
      ],
      "fact_recall": 1.0,
      "fact_hits": [
        "Findings",
        "VSTESTCD",
        "C66741"
      ],
      "fact_misses": [],
      "answer_preview": "## VS (Vital Signs) Domain Overview\n\nThe VS domain is a **Findings** class domain used to represent vital sign measurements collected during a clinical trial, such as blood pressure, heart rate, body temperature, respiratory rate, and body mass index. **[Source: domains/VS/spec.md]**\n\n### VSTESTCD — Vital Signs Test Short Name\n\n| Attribute | Value |\n|-----------|-------|\n| **Label** | Vital Signs Test Short Name |\n| **Type** | Char |\n| **Role** | Topic |\n| **Core** | Req |\n| **Controlled Terms** | C66741 |\n| **CDISC Notes** | Short name of the measurement, test, or examination described in VST",
      "usage": {
        "prompt_tokens": 11557,
        "completion_tokens": 655,
        "total_tokens": 12212
      },
      "model": "deepseek/deepseek-chat",
      "answer": "## VS (Vital Signs) Domain Overview\n\nThe VS domain is a **Findings** class domain used to represent vital sign measurements collected during a clinical trial, such as blood pressure, heart rate, body temperature, respiratory rate, and body mass index. **[Source: domains/VS/spec.md]**\n\n### VSTESTCD — Vital Signs Test Short Name\n\n| Attribute | Value |\n|-----------|-------|\n| **Label** | Vital Signs Test Short Name |\n| **Type** | Char |\n| **Role** | Topic |\n| **Core** | Req |\n| **Controlled Terms** | C66741 |\n| **CDISC Notes** | Short name of the measurement, test, or examination described in VSTEST. Can be used as a column name when converting from vertical to horizontal format. Maximum 8 characters; cannot start with a number or contain characters other than letters, numbers, or underscores. |\n\n**[Source: domains/VS/spec.md — VSTESTCD]**\n\n### Examples of VSTESTCD Values\n\nThe controlled terminology codelist **C66741 (Vital Signs Test Code)** includes values such as:\n\n| VSTESTCD | VSTEST |\n|----------|--------|\n| SYSBP | Systolic Blood Pressure |\n| DIABP | Diastolic Blood Pressure |\n| BMI | Body Mass Index |\n| PULSE | Pulse Rate / Heart Rate |\n| RESP | Respiratory Rate |\n| TEMP | Temperature |\n| WEIGHT | Weight |\n| HEIGHT | Height |\n| MAP | Mean Arterial Pressure |\n| O2SAT | Oxygen Saturation |\n\n**[Source: domains/VS/spec.md — VSTESTCD (examples in CDISC Notes); domains/VS/spec.md — VSTEST (examples in CDISC Notes)]**\n\n### Related Variables\n\n- **VSTEST** (C67153) — Vital Signs Test Name, the full verbatim name corresponding to VSTESTCD. **[Source: domains/VS/spec.md — VSTEST]**\n- **VSORRES** — Result in original units. **[Source: domains/VS/spec.md — VSORRES]**\n- **VSORRESU** (C66770) — Original units. **[Source: domains/VS/spec.md — VSORRESU]**\n- **VSSTRESN** — Numeric result in standard units. **[Source: domains/VS/spec.md — VSSTRESN]**\n- **VSSTRESU** (C66770) — Standard units. **[Source: domains/VS/spec.md — VSSTRESU]**\n\n### Key Assumptions\n\n- Reference range variables (VSORNRLO, VSORNRHI, VSNRIND) may be added if available. **[Source: domains/VS/assumptions.md — item_2]**\n- Clinical significance is represented in VSCLSIG (C66742). **[Source: domains/VS/assumptions.md — item_2]**\n- Associations between vital sign tests and qualifier codelists are described in the CDISC VS codetable. **[Source: domains/VS/assumptions.md — item_3]**",
      "elapsed_s": 6.66
    },
    {
      "id": "q23",
      "category": "single_domain",
      "question": "In the CM (Concomitant Medications) domain, what is the CMTRT variable and what observation class does CM belong to?",
      "source_recall": 1.0,
      "source_hits": [
        "domains/CM/spec.md"
      ],
      "source_misses": [],
      "top5_sources": [
        "domains/CM/spec.md",
        "domains/CM/assumptions.md",
        "domains/CM/assumptions.md",
        "domains/CM/spec.md",
        "VARIABLE_INDEX.md"
      ],
      "top5_similarities": [
        0.6736,
        0.6595,
        0.6281,
        0.6034,
        0.5988
      ],
      "fact_recall": 1.0,
      "fact_hits": [
        "CMTRT",
        "Interventions",
        "Topic",
        "Req"
      ],
      "fact_misses": [],
      "answer_preview": "Based on the provided context, here is the information about the CMTRT variable and the observation class for the CM domain.\n\n### CMTRT Variable Definition\n\n- **Label:** Reported Name of Drug, Med, or Therapy\n- **Type:** Char\n- **Role:** Topic\n- **Core:** Req\n- **Controlled Terms:** None specified\n- **CDISC Notes:** Verbatim medication name that is either preprinted or collected on a CRF. **[Source: domains/CM/spec.md]**\n\n**Additional Business Rules:**\n- CMTRT is the topic variable and captures the name of the concomitant medication/therapy or the prespecified term used to collect information ",
      "usage": {
        "prompt_tokens": 10746,
        "completion_tokens": 305,
        "total_tokens": 11051
      },
      "model": "deepseek/deepseek-chat",
      "answer": "Based on the provided context, here is the information about the CMTRT variable and the observation class for the CM domain.\n\n### CMTRT Variable Definition\n\n- **Label:** Reported Name of Drug, Med, or Therapy\n- **Type:** Char\n- **Role:** Topic\n- **Core:** Req\n- **Controlled Terms:** None specified\n- **CDISC Notes:** Verbatim medication name that is either preprinted or collected on a CRF. **[Source: domains/CM/spec.md]**\n\n**Additional Business Rules:**\n- CMTRT is the topic variable and captures the name of the concomitant medication/therapy or the prespecified term used to collect information about the occurrence of any of a group of medications and/or therapies. It is a required variable and must have a value.\n- CMTRT only includes the medication/therapy name and does not include dosage, formulation, or other qualifying information. For example, \"ASPIRIN 100MG TABLET\" is not a valid value for CMTRT. This example should be expressed as CMTRT= \"ASPIRIN\", CMDOSE= \"100\", CMDOSU= \"MG\", and CMDOSFRM= \"TABLET\". **[Source: domains/CM/assumptions.md]**\n\n### CM Domain Observation Class\n\nThe CM (Concomitant/Prior Medications) domain belongs to the **Interventions** observation class. **[Source: domains/CM/assumptions.md]**",
      "elapsed_s": 3.53
    },
    {
      "id": "q24",
      "category": "single_domain",
      "question": "What is the EX (Exposure) domain used for and what is the Topic variable EXTRT?",
      "source_recall": 1.0,
      "source_hits": [
        "domains/EX/spec.md"
      ],
      "source_misses": [],
      "top5_sources": [
        "domains/EX/assumptions.md",
        "domains/EX/assumptions.md",
        "domains/EX/assumptions.md",
        "domains/EC/spec.md",
        "domains/EX/assumptions.md"
      ],
      "top5_similarities": [
        0.6559,
        0.6203,
        0.6116,
        0.5973,
        0.5774
      ],
      "fact_recall": 1.0,
      "fact_hits": [
        "EXTRT",
        "Interventions",
        "protocol-specified"
      ],
      "fact_misses": [],
      "answer_preview": "## EX (Exposure) Domain — Purpose and Topic Variable\n\n### Domain Purpose\n\nThe EX (Exposure) domain is used to represent **protocol-specified study treatment** administrations. It is an **Interventions** class domain and is **required for all studies that include protocol-specified study treatment** [Source: domains/EX/assumptions.md — item_1].\n\nKey characteristics:\n- Represents treatments such as placebo, active comparators, and investigational products [Source: domains/EX/assumptions.md — item_1a]\n- Treatments that are **not** protocol-specified should be represented in the Concomitant/Prior ",
      "usage": {
        "prompt_tokens": 11890,
        "completion_tokens": 544,
        "total_tokens": 12434
      },
      "model": "deepseek/deepseek-chat",
      "answer": "## EX (Exposure) Domain — Purpose and Topic Variable\n\n### Domain Purpose\n\nThe EX (Exposure) domain is used to represent **protocol-specified study treatment** administrations. It is an **Interventions** class domain and is **required for all studies that include protocol-specified study treatment** [Source: domains/EX/assumptions.md — item_1].\n\nKey characteristics:\n- Represents treatments such as placebo, active comparators, and investigational products [Source: domains/EX/assumptions.md — item_1a]\n- Treatments that are **not** protocol-specified should be represented in the Concomitant/Prior Medications (CM) or another Interventions domain [Source: domains/EX/assumptions.md — item_1a]\n- In most cases, EX is a **derived dataset** where EXDOSU reflects the protocol-specified unit per study treatment [Source: domains/EX/assumptions.md — item_1b]\n- Collected exposure data points (e.g., number of tablets, total volume infused) are represented in the **Exposure as Collected (EC)** domain, with relationships between EC and EX described via RELREC [Source: domains/EX/assumptions.md — item_5]\n- The EX domain should contain **1 record per constant-dosing interval per subject** [Source: domains/EX/assumptions.md — item_1d]\n\n### Topic Variable: EXTRT\n\n| Attribute | Value |\n|-----------|-------|\n| **Label** | Name of Treatment |\n| **Type** | Char |\n| **Role** | Topic |\n| **Core** | Required |\n| **Controlled Terms** | — (not specified) |\n\n[Source: VARIABLE_INDEX.md — EX section]\n\n**Key rules for EXTRT** [Source: domains/EX/assumptions.md — item_2]:\n\n1. **Required**: EXTRT must always have a value.\n2. **Treatment name only**: EXTRT must include only the treatment name and must **not** include dosage, formulation, or other qualifying information.\n   - Example: `\"ASPIRIN 100MG TABLET\"` is **not** valid for EXTRT.\n   - Correct representation: `EXTRT = \"ASPIRIN\"`, `EXDOSE = \"100\"`, `EXDOSU = \"mg\"`, `EXDOSFRM = \"TABLET\"`.\n3. **Placebo**: Doses of placebo should be represented as `EXTRT = \"PLACEBO\"` and `EXDOSE = \"0\"` (indicating 0 mg of active ingredient).",
      "elapsed_s": 5.79
    },
    {
      "id": "q25",
      "category": "single_domain",
      "question": "In the MH (Medical History) domain, what is the role of MHTERM and what assumptions guide medical history data collection?",
      "source_recall": 1.0,
      "source_hits": [
        "domains/MH/assumptions.md"
      ],
      "source_misses": [],
      "top5_sources": [
        "domains/MH/assumptions.md",
        "VARIABLE_INDEX.md",
        "domains/MH/assumptions.md",
        "domains/MH/spec.md",
        "domains/MH/assumptions.md"
      ],
      "top5_similarities": [
        0.7369,
        0.6859,
        0.6769,
        0.6765,
        0.6714
      ],
      "fact_recall": 1.0,
      "fact_hits": [
        "MHTERM",
        "Topic",
        "Verbatim"
      ],
      "fact_misses": [],
      "answer_preview": "## MHTERM Role and Medical History Data Collection Assumptions\n\n### MHTERM Variable Definition\n\n| Attribute | Value |\n|-----------|-------|\n| **Label** | Reported Term for the Medical History |\n| **Type** | Char |\n| **Role** | Topic |\n| **Core** | Req |\n| **Controlled Terms** | None (free text or prespecified term) |\n| **CDISC Notes** | Verbatim or preprinted CRF term for the medical condition or event |\n\n**[Source: domains/MH/spec.md -- MHTERM]**\n\n### Key Assumptions for Medical History Data Collection\n\n#### 1. MHTERM as the Topic Variable\n- MHTERM is the **Topic variable** and is **required*",
      "usage": {
        "prompt_tokens": 13648,
        "completion_tokens": 1448,
        "total_tokens": 15096
      },
      "model": "deepseek/deepseek-chat",
      "answer": "## MHTERM Role and Medical History Data Collection Assumptions\n\n### MHTERM Variable Definition\n\n| Attribute | Value |\n|-----------|-------|\n| **Label** | Reported Term for the Medical History |\n| **Type** | Char |\n| **Role** | Topic |\n| **Core** | Req |\n| **Controlled Terms** | None (free text or prespecified term) |\n| **CDISC Notes** | Verbatim or preprinted CRF term for the medical condition or event |\n\n**[Source: domains/MH/spec.md -- MHTERM]**\n\n### Key Assumptions for Medical History Data Collection\n\n#### 1. MHTERM as the Topic Variable\n- MHTERM is the **Topic variable** and is **required** — it must always have a value.\n- It captures either the **verbatim term** collected for the condition/event or the **prespecified term** used to solicit information about occurrence of a group of conditions.\n- **MHTERM** is the primary identifier for each medical history record.\n\n**[Source: domains/MH/assumptions.md -- item_2a]**\n\n#### 2. Coding and Dictionary Mapping\n- **MHMODIFY** (Permissible): Used if the sponsor modifies a verbatim term before coding; null values are permitted.\n- **MHDECOD** (Permissible): Populated with the **preferred term** from a standard dictionary (e.g., MedDRA). The dictionary name and version must be documented in Define-XML.\n- **MHBODSYS** (Permissible): The **system organ class (SOC)** from the coding dictionary. This may differ from the primary SOC in the dictionary's standard hierarchy.\n- When a CRF collects medical history by prespecified body systems **and** the sponsor codes using a standard dictionary, **MHDECOD** and **MHBODSYS** come from the dictionary, while **MHCAT** and **MHSCAT** represent the prespecified body systems.\n\n**[Source: domains/MH/assumptions.md -- item_2b, 2c, 2d, 2e]**\n\n#### 3. Prespecified Terms and Occurrence (MHPRESP / MHOCCUR)\n- **MHPRESP** (C66742 — No Yes Response): Indicates whether the term was **prespecified** on the CRF. Value = \"Y\" means prespecified.\n- **MHOCCUR** (C66742): Indicates whether a prespecified condition **occurred** (\"Y\") or **did not occur** (\"N\").\n- For **spontaneously reported** (free text) events, both MHPRESP and MHOCCUR should be **null**.\n- If all medical history events are collected as free text, MHPRESP and MHOCCUR may be omitted entirely.\n\n| Situation | MHPRESP | MHOCCUR | MHSTAT |\n|-----------|---------|---------|--------|\n| Spontaneously reported event occurred | (null) | (null) | (null) |\n| Pre-specified event occurred | Y | Y | (null) |\n| Pre-specified event did not occur | Y | N | (null) |\n| Pre-specified event has no response | Y | (null) | NOT DONE |\n\n**[Source: domains/MH/assumptions.md -- item_4a, 4b, 4c, 4d]**\n\n#### 4. Handling Missing Responses\n- **MHSTAT** (C66789 — Not Done): Used when a prespecified question was **not asked** (e.g., \"NOT DONE\").\n- **MHREASND**: Provides the **reason** why the medical history was not collected (e.g., \"FORGOT TO ASK\").\n- These variables may be omitted if all data were collected as free text or if all prespecified conditions had responses in MHOCCUR.\n\n**[Source: domains/MH/assumptions.md -- item_4d]**\n\n#### 5. Categorization and Grouping\n- **MHCAT** (Permissible): Category of related records (e.g., \"CARDIAC\", \"GENERAL MEDICAL HISTORY\", \"STROKE HISTORY\", \"RISK FACTORS\"). Should **not** group all records into one generic category like \"Medical Medical History\" — this is redundant with the domain code.\n- **MHSCAT** (Permissible): Subcategory (e.g., \"RESPIRATORY\", \"CNS\", \"SYMPTOMS\").\n- **MHGRPID** (Permissible): Used to link related records **within a subject** (e.g., grouping \"CONGESTIVE HEART FAILURE\" records with different start date types). Not a substitute for MHCAT/MHSCAT.\n\n**[Source: domains/MH/assumptions.md -- item_3a, 3b]**\n\n#### 6. Timing Variables\n- **MHENRF** (C66728 — Relation to Reference Period): Used when \"Ongoing\" is relative to the study reference period start (RFSTDTC from DM).\n- **MHENRTPT** (C66728) and **MHENTPT**: Used when \"Ongoing\" is relative to another date (e.g., screening visit date).\n- **MHEVDTYP** (C124301 — Medical History Event Date Type): Specifies which aspect of the event the start/end date represents (e.g., \"SYMPTOM ONSET\", \"DIAGNOSIS\").\n- **MHSTDTC** / **MHENDTC**: Start/end date/time of the medical history event (ISO 8601).\n- **MHDTC**: Date/time of history collection.\n\n**[Source: domains/MH/assumptions.md -- item_5a, 5b]**\n\n#### 7. \"No Medical History\" Records\n- When a subject has **no medical history** (or no events in a prespecified body system category), **do not include a record** in the MH dataset to indicate absence. This is different from prespecified terms where MHOCCUR = \"N\" is used.\n\n**[Source: domains/MH/assumptions.md -- item_4e]**\n\n### Summary of MHTERM's Role\n\nMHTERM serves as the **Topic variable** — the primary identifier for each medical history observation. It captures either:\n- A **verbatim term** from free-text collection (with no MHPRESP/MHOCCUR), or\n- A **prespecified term** from a checklist (with MHPRESP = \"Y\" and MHOCCUR indicating occurrence)\n\nAll other variables in the MH domain (MHDECOD, MHBODSYS, MHCAT, MHSCAT, timing variables, etc.) serve as **qualifiers** that provide additional context about the medical history event identified by MHTERM.",
      "elapsed_s": 14.3
    },
    {
      "id": "q26",
      "category": "single_domain",
      "question": "Describe the EG (ECG Test Results) domain structure and the EGTESTCD variable, including its controlled terminology codelist codes.",
      "source_recall": 1.0,
      "source_hits": [
        "domains/EG/spec.md"
      ],
      "source_misses": [],
      "top5_sources": [
        "domains/EG/spec.md",
        "domains/EG/spec.md",
        "domains/EG/spec.md",
        "VARIABLE_INDEX.md",
        "domains/EG/spec.md"
      ],
      "top5_similarities": [
        0.7263,
        0.7253,
        0.7229,
        0.6737,
        0.6583
      ],
      "fact_recall": 1.0,
      "fact_hits": [
        "EGTESTCD",
        "Findings",
        "C71153"
      ],
      "fact_misses": [],
      "answer_preview": "## EG (ECG Test Results) Domain Structure\n\nThe EG domain is a **Findings** class domain used to represent ECG test results and measurements. It contains **39 variables** organized by role:\n\n**Identifier variables (5):** EGSEQ (Req), EGGRPID (Perm), EGREFID (Perm), EGSPID (Perm), EGBEATNO (Perm)\n\n**Topic variable (1):** EGTESTCD (Req) — the short name for the ECG test\n\n**Synonym Qualifier (1):** EGTEST (Req) — the full name of the ECG test\n\n**Grouping Qualifiers (2):** EGCAT (Perm), EGSCAT (Perm)\n\n**Record Qualifiers (12):** EGPOS, EGSTAT, EGREASND, EGXFN, EGNAM, EGMETHOD, EGLEAD, EGLOBXFL, EGB",
      "usage": {
        "prompt_tokens": 12340,
        "completion_tokens": 812,
        "total_tokens": 13152
      },
      "model": "deepseek/deepseek-chat",
      "answer": "## EG (ECG Test Results) Domain Structure\n\nThe EG domain is a **Findings** class domain used to represent ECG test results and measurements. It contains **39 variables** organized by role:\n\n**Identifier variables (5):** EGSEQ (Req), EGGRPID (Perm), EGREFID (Perm), EGSPID (Perm), EGBEATNO (Perm)\n\n**Topic variable (1):** EGTESTCD (Req) — the short name for the ECG test\n\n**Synonym Qualifier (1):** EGTEST (Req) — the full name of the ECG test\n\n**Grouping Qualifiers (2):** EGCAT (Perm), EGSCAT (Perm)\n\n**Record Qualifiers (12):** EGPOS, EGSTAT, EGREASND, EGXFN, EGNAM, EGMETHOD, EGLEAD, EGLOBXFL, EGBLFL, EGDRVFL, EGEVAL, EGCLSIG, EGREPNUM\n\n**Result Qualifiers (3):** EGORRES (Exp), EGSTRESC (Exp), EGSTRESN (Perm)\n\n**Variable Qualifiers (3):** EGORRESU (Perm), EGSTRESU (Perm), EGEVALID (Perm)\n\n**Timing variables (6):** EGDTC (Exp), EGDY (Perm), EGTPT (Perm), EGTPTNUM (Perm), EGELTM (Perm), EGTPTREF (Perm), EGRFTDTC (Perm)\n\n**[Source: domains/EG/spec.md — variable table]**\n\n---\n\n## EGTESTCD Variable Definition\n\n| Attribute | Value |\n|-----------|-------|\n| **Label** | ECG Test or Examination Short Name |\n| **Type** | Char |\n| **Role** | Topic |\n| **Core** | Req |\n| **Controlled Terms** | C71153; C120523 |\n\n**CDISC Notes:** Short name of the measurement, test, or examination described in EGTEST. It can be used as a column name when converting a dataset from a vertical to a horizontal format. The value in EGTESTCD cannot be longer than 8 characters, nor can it start with a number (e.g., \"1TEST\" is not valid). EGTESTCD cannot contain characters other than letters, numbers, or underscores. Examples: \"PRAG\", \"QRSAG\". Test codes are in 2 separate codelists, 1 for tests based on regular 10-second ECGs (EGTESTCD) and 1 for tests based on Holter monitoring (HETESTCD).\n\n**[Source: domains/EG/spec.md — EGTESTCD]**\n\n---\n\n## Controlled Terminology Codelist Codes\n\nEGTESTCD references **two separate codelists**:\n\n1. **C71153** — ECG Test Code — for tests based on regular 10-second ECGs (e.g., PRAG, QRSAG, QTAG, QTCBAG, QTCFAG, INTP, EGHRMN, SPRATRY, TECHQUAL)\n2. **C120523** — Holter ECG Test Code — for tests based on Holter monitoring (HETESTCD)\n\nThis dual-codelist approach is confirmed by the domain assumptions: *\"There are separate codelists for tests and results based on regular 10-second ECGs and for tests and results based on Holter monitoring.\"*\n\n**[Source: domains/EG/spec.md — Controlled Terminology section]**\n**[Source: domains/EG/assumptions.md — item 2]**\n\nThe corresponding test name variable **EGTEST** similarly references two codelists:\n- **C71152** — ECG Test Name (for regular ECGs)\n- **C120524** — Holter ECG Test Name (for Holter monitoring)\n\n**[Source: domains/EG/spec.md — EGTEST]**",
      "elapsed_s": 7.76
    },
    {
      "id": "q27",
      "category": "single_domain",
      "question": "What is the IE (Inclusion/Exclusion) domain and what is the role and maximum length of the IETEST variable?",
      "source_recall": 1.0,
      "source_hits": [
        "domains/IE/spec.md"
      ],
      "source_misses": [],
      "top5_sources": [
        "domains/TI/spec.md",
        "domains/IE/spec.md",
        "domains/TI/assumptions.md",
        "domains/IE/assumptions.md",
        "domains/IE/assumptions.md"
      ],
      "top5_similarities": [
        0.7161,
        0.6769,
        0.6678,
        0.6552,
        0.6364
      ],
      "fact_recall": 1.0,
      "fact_hits": [
        "IETEST",
        "200",
        "Synonym Qualifier"
      ],
      "fact_misses": [],
      "answer_preview": "## IE (Inclusion/Exclusion Criteria Not Met) Domain\n\nThe IE domain is a **Findings** class domain used to collect responses to only those inclusion/exclusion criteria that a subject **did not meet** — not responses to all criteria. For the complete list of all inclusion/exclusion criteria, the TI (Trial Inclusion/Exclusion Criteria) domain should be referenced. **[Source: domains/IE/assumptions.md — item_1]**\n\n## IETEST Variable Definition\n\n| Attribute | Value |\n|-----------|-------|\n| **Label** | Inclusion/Exclusion Criterion |\n| **Type** | Char |\n| **Role** | Synonym Qualifier |\n| **Core** |",
      "usage": {
        "prompt_tokens": 9431,
        "completion_tokens": 358,
        "total_tokens": 9789
      },
      "model": "deepseek/deepseek-chat",
      "answer": "## IE (Inclusion/Exclusion Criteria Not Met) Domain\n\nThe IE domain is a **Findings** class domain used to collect responses to only those inclusion/exclusion criteria that a subject **did not meet** — not responses to all criteria. For the complete list of all inclusion/exclusion criteria, the TI (Trial Inclusion/Exclusion Criteria) domain should be referenced. **[Source: domains/IE/assumptions.md — item_1]**\n\n## IETEST Variable Definition\n\n| Attribute | Value |\n|-----------|-------|\n| **Label** | Inclusion/Exclusion Criterion |\n| **Type** | Char |\n| **Role** | Synonym Qualifier |\n| **Core** | Req |\n| **Controlled Terms** | (none) |\n| **Maximum Length** | 200 characters |\n\n**[Source: domains/IE/spec.md — IETEST]**\n\n### Key Rules for IETEST:\n\n1. **Content**: Contains the verbatim description of the inclusion or exclusion criterion that was the exception for the subject. **[Source: domains/IE/spec.md — IETEST, CDISC Notes]**\n\n2. **Length constraint**: If the text is no more than 200 characters, it goes in IETEST; if the text exceeds 200 characters, put meaningful text in IETEST and describe the full text in the study metadata. **[Source: domains/IE/assumptions.md — item_3]**\n\n3. **Distinction from TI domain**: In the TI domain, IETEST also contains the text of the inclusion/exclusion criterion, but TI represents the planned criteria list, while IE captures actual subject-level exceptions. **[Source: domains/TI/assumptions.md — item_4]**",
      "elapsed_s": 4.33
    },
    {
      "id": "q06",
      "category": "cross_domain",
      "question": "What is SUPPQUAL and when should supplemental qualifiers be used instead of adding variables to a domain?",
      "source_recall": 1.0,
      "source_hits": [
        "domains/SUPPQUAL/spec.md"
      ],
      "source_misses": [],
      "top5_sources": [
        "chapters/ch08_relationships.md",
        "domains/SUPPQUAL/assumptions.md",
        "chapters/ch08_relationships.md",
        "model/06_relationship_datasets.md",
        "chapters/ch08_relationships.md"
      ],
      "top5_similarities": [
        0.7411,
        0.7409,
        0.7302,
        0.7295,
        0.6782
      ],
      "fact_recall": 1.0,
      "fact_hits": [
        "QNAM",
        "QVAL",
        "non-standard"
      ],
      "fact_misses": [],
      "answer_preview": "## SUPPQUAL — Supplemental Qualifiers\n\n**SUPPQUAL** (Supplemental Qualifiers for [domain name]) is a special-purpose relationship dataset model in SDTM used to capture **non-standard variables (NSVs)** — sponsor-defined variables that cannot be accommodated in the standard domain datasets. **[Source: domains/SUPPQUAL/assumptions.md]**\n\n### Structure\n\nSUPP-- datasets follow a one-to-one correspondence with parent domains. For example, supplemental qualifiers for AE are submitted in `suppae.xpt`, for CM in `suppcm.xpt`, etc. **[Source: chapters/ch08_relationships.md §8.4.2]**\n\n**Key variables** ",
      "usage": {
        "prompt_tokens": 15465,
        "completion_tokens": 813,
        "total_tokens": 16278
      },
      "model": "deepseek/deepseek-chat",
      "answer": "## SUPPQUAL — Supplemental Qualifiers\n\n**SUPPQUAL** (Supplemental Qualifiers for [domain name]) is a special-purpose relationship dataset model in SDTM used to capture **non-standard variables (NSVs)** — sponsor-defined variables that cannot be accommodated in the standard domain datasets. **[Source: domains/SUPPQUAL/assumptions.md]**\n\n### Structure\n\nSUPP-- datasets follow a one-to-one correspondence with parent domains. For example, supplemental qualifiers for AE are submitted in `suppae.xpt`, for CM in `suppcm.xpt`, etc. **[Source: chapters/ch08_relationships.md §8.4.2]**\n\n**Key variables** (from spec.md):\n\n| Variable | Label | Type | Role | Core |\n|----------|-------|------|------|------|\n| QNAM | Qualifier Variable Name | Char | Topic | Req |\n| QLABEL | Qualifier Variable Label | Char | Synonym Qualifier | Req |\n| QVAL | Data Value | Char | Result Qualifier | Req |\n| QORIG | Origin | Char | Record Qualifier | Req |\n| QEVAL | Evaluator | Char | Record Qualifier | Exp |\n\n**[Source: chapters/ch08_relationships.md §8.4.1; domains/SUPPQUAL/spec.md]**\n\n### When to Use Supplemental Qualifiers\n\nSupplemental qualifiers should be used **instead of adding variables to a domain** because **the SDTM does not allow the addition of new variables** to standard domain datasets. **[Source: domains/SUPPQUAL/assumptions.md]**\n\nUse SUPP-- when:\n\n1. **Sponsor-defined data** that cannot be mapped to any existing SDTM variable needs to be associated with parent records in general-observation class datasets (Events, Findings, Interventions), Demographics (DM), or Subject Visits (SV). **[Source: chapters/ch08_relationships.md §8.4]**\n\n2. **Attributions** — subjective interpretations or classifications by a specific evaluator (e.g., an adjudication committee's assessment of severity vs. the investigator's). The primary evaluation goes in the standard domain; secondary evaluations go in SUPP-- with QNAM formed by appending \"1\" to the standard variable name. **[Source: chapters/ch04_general_assumptions.md §4.5.4]**\n\n3. **Data values exceeding 200 characters** — text strings too long for standard domain variables. **[Source: chapters/ch08_relationships.md §8.4.2]**\n\n### When NOT to Use Supplemental Qualifiers\n\nPer **[Source: chapters/ch08_relationships.md §8.4.4]**, do NOT use SUPP-- for:\n\n- **Subject-level objective data** that fit in Subject Characteristics (SC), e.g., national origin, twin type\n- **Findings interpretations** that should be added as an additional test code and result (e.g., ECG interpretation as EGTESTCD = \"INTP\")\n- **Comments** related to records — these belong in the CO (Comments) special-purpose domain\n- **Data not directly related** to records in a parent domain — these belong in a separate general observation class or special-purpose domain\n\n### Key Rules\n\n- All records in SUPP-- **must have a value for QVAL**; records with null QVAL must be deleted prior to submission. **[Source: domains/SUPPQUAL/assumptions.md]**\n- The combined set of values for STUDYID, RDOMAIN, USUBJID, IDVAR, IDVARVAL, and QNAM must be **unique** for every record. **[Source: domains/SUPPQUAL/assumptions.md]**\n- For DM parent records, both IDVAR and IDVARVAL are null because STUDYID, RDOMAIN, and USUBJID uniquely identify the record. **[Source: chapters/ch08_relationships.md §8.4.1]**",
      "elapsed_s": 9.29
    },
    {
      "id": "q07",
      "category": "cross_domain",
      "question": "Which SDTM domains use the EPOCH variable and what is its purpose?",
      "source_recall": 0.0,
      "source_hits": [],
      "source_misses": [
        "VARIABLE_INDEX.md"
      ],
      "top5_sources": [
        "chapters/ch04_general_assumptions.md",
        "domains/SR/spec.md",
        "domains/TA/assumptions.md",
        "domains/CP/spec.md",
        "domains/FA/spec.md"
      ],
      "top5_similarities": [
        0.7004,
        0.6837,
        0.6827,
        0.6778,
        0.6772
      ],
      "fact_recall": 1.0,
      "fact_hits": [
        "EPOCH",
        "Timing"
      ],
      "fact_misses": [],
      "answer_preview": "Based on the retrieved context, the EPOCH variable is used across multiple SDTM domains as a Timing variable. Below is a summary of its usage and purpose.\n\n### Domains Using EPOCH\n\nThe EPOCH variable appears in the following domains (based on the retrieved context):\n\n- **SR** (Skin Response) — Epoch associated with the date/time of the observation. **[Source: domains/SR/spec.md]**\n- **CP** (Cell Phenotype Findings) — Epoch associated with the start date/time of the observation, or the date/time of collection if start date/time is not collected. **[Source: domains/CP/spec.md]**\n- **FA** (Findin",
      "usage": {
        "prompt_tokens": 9518,
        "completion_tokens": 975,
        "total_tokens": 10493
      },
      "model": "deepseek/deepseek-chat",
      "answer": "Based on the retrieved context, the EPOCH variable is used across multiple SDTM domains as a Timing variable. Below is a summary of its usage and purpose.\n\n### Domains Using EPOCH\n\nThe EPOCH variable appears in the following domains (based on the retrieved context):\n\n- **SR** (Skin Response) — Epoch associated with the date/time of the observation. **[Source: domains/SR/spec.md]**\n- **CP** (Cell Phenotype Findings) — Epoch associated with the start date/time of the observation, or the date/time of collection if start date/time is not collected. **[Source: domains/CP/spec.md]**\n- **FA** (Findings About Events or Interventions) — Epoch associated with the date/time of the observation. **[Source: domains/FA/spec.md]**\n- **PP** (Pharmacokinetics Parameters) — Epoch associated with the start date/time of the observation, or the date/time of collection if start date/time is not collected. **[Source: domains/PP/spec.md]**\n- **PC** (Pharmacokinetics Concentrations) — Epoch associated with the start date/time of the observation, or the date/time of collection if start date/time is not collected. **[Source: domains/PC/spec.md]**\n- **LB** (Laboratory Test Results) — Epoch associated with the start date/time of the observation, or the date/time of collection if start date/time is not collected. **[Source: domains/LB/spec.md]**\n- **FT** (Functional Tests) — Epoch associated with the observation date/time of the functional tests finding. **[Source: domains/FT/spec.md]**\n- **UR** (Urinary System Findings) — Epoch associated with the date/time at which the observation was made. **[Source: domains/UR/spec.md]**\n- **SS** (Subject Status) — Epoch associated with the start date/time of the subject status assessment. **[Source: domains/SS/spec.md]**\n- **IS** (Immunogenicity Specimen Assessments) — Epoch associated with the start date/time of the observation, or the date/time of collection if start date/time is not collected. **[Source: domains/IS/spec.md]**\n- **RE** (Respiratory System Findings) — Epoch associated with the date/time at which the assessment was made. **[Source: domains/RE/spec.md]**\n- **EG** (ECG Test Results) — Epoch associated with the date/time at which the assessment was made. **[Source: domains/EG/spec.md]**\n- **VS** (Vital Signs) — Epoch associated with the start date/time at which the assessment was made. **[Source: domains/VS/spec.md]**\n\nAdditionally, the context notes that EPOCH may be used in other datasets such as **EX** (Exposure) and **DS** (Disposition), and values of EPOCH must be different for different epochs (e.g., in a crossover trial, each treatment epoch must have a distinct name). **[Source: domains/TA/assumptions.md]**\n\n### Purpose of EPOCH\n\nThe EPOCH variable is a **Timing** variable (Role: Timing) with **Permissible** (Perm) core status. Its controlled terms are from codelist **C99079**. **[Source: multiple spec.md files]**\n\nThe general guidance for EPOCH is:\n\n- **For Findings class domains**: EPOCH should be based on the `--DTC` variable (the date/time of the test or specimen collection). **[Source: chapters/ch04_general_assumptions.md]**\n- **For Interventions or Events class domains**: EPOCH should be based on the `--STDTC` variable (the start date/time of the intervention or event). **[Source: chapters/ch04_general_assumptions.md]**\n- **Sponsors should not impute EPOCH values** but should assign them based on CRF instructions and structure where possible. If it is not possible to determine the epoch, EPOCH should be null. **[Source: chapters/ch04_general_assumptions.md]**\n- **EPOCH is not applicable** to observations that started before the subject's participation in a study (including screening, which occurs before RFSTDTC). For such records, EPOCH should be null. **[Source: chapters/ch04_general_assumptions.md]**\n\nIn summary, EPOCH is used to categorize observations into study design periods (e.g., \"SCREENING\", \"TREATMENT\", \"FOLLOW-UP\") based on the timing of the observation relative to the trial schedule.",
      "elapsed_s": 8.77
    },
    {
      "id": "q08",
      "category": "cross_domain",
      "question": "How does USUBJID serve as a linking key across SDTM domains?",
      "source_recall": 1.0,
      "source_hits": [
        "domains/DM/spec.md"
      ],
      "source_misses": [],
      "top5_sources": [
        "domains/SUPPQUAL/spec.md",
        "domains/DM/spec.md",
        "domains/PP/spec.md",
        "domains/RELSPEC/spec.md",
        "domains/RELSUB/spec.md"
      ],
      "top5_similarities": [
        0.7075,
        0.6923,
        0.6855,
        0.6845,
        0.6825
      ],
      "fact_recall": 1.0,
      "fact_hits": [
        "USUBJID",
        "Identifier",
        "unique"
      ],
      "fact_misses": [],
      "answer_preview": "Based on the retrieved context, **USUBJID** (Unique Subject Identifier) serves as the primary linking key across SDTM domains by being a **Required (Req) Identifier variable** that is consistently present in virtually all subject-level domains.\n\nHere is how it functions as a linking key:\n\n1.  **Universal Identifier Role**: USUBJID is defined with the **Role: Identifier** and **Core: Req** (Required) in nearly every domain. This means it must be populated in every record for every subject across all domains, making it the standard key for linking records that belong to the same subject. **[Sour",
      "usage": {
        "prompt_tokens": 9182,
        "completion_tokens": 672,
        "total_tokens": 9854
      },
      "model": "deepseek/deepseek-chat",
      "answer": "Based on the retrieved context, **USUBJID** (Unique Subject Identifier) serves as the primary linking key across SDTM domains by being a **Required (Req) Identifier variable** that is consistently present in virtually all subject-level domains.\n\nHere is how it functions as a linking key:\n\n1.  **Universal Identifier Role**: USUBJID is defined with the **Role: Identifier** and **Core: Req** (Required) in nearly every domain. This means it must be populated in every record for every subject across all domains, making it the standard key for linking records that belong to the same subject. **[Source: domains/DM/spec.md, domains/AE/spec.md, domains/LB/spec.md, domains/VS/spec.md, etc.]**\n\n2.  **Cross-Domain Consistency**: The variable definition is identical across all domains: \"Identifier used to uniquely identify a subject across all studies for all applications or submissions involving the product.\" This ensures that the same value in one domain (e.g., DM) can be directly matched to the same value in another domain (e.g., AE, LB, VS). **[Source: domains/DM/spec.md, domains/PP/spec.md, domains/CO/spec.md, domains/CP/spec.md, etc.]**\n\n3.  **Primary Key in Demographics (DM)**: In the **DM** domain, USUBJID is the primary key (one record per subject). The CDISC Note for DM specifies that it \"must be a unique value, and could be a compound identifier formed by concatenating STUDYID-SITEID-SUBJID.\" This establishes the master list of subjects. **[Source: domains/DM/spec.md]**\n\n4.  **Foreign Key in All Other Domains**: In all other domains (AE, LB, VS, CM, MH, etc.), USUBJID acts as a foreign key that references the DM domain. For example, to link an adverse event record to a subject's demographics, you join `AE.USUBJID = DM.USUBJID`. **[Source: domains/AE/spec.md, domains/LB/spec.md, domains/VS/spec.md, etc.]**\n\n5.  **Exception for Relationship Domains**: In the **RELSUB** domain (Related Subjects), USUBJID has **Core: Exp** (Expected) rather than Req, because either USUBJID or POOLID must be populated. This is a special case for pooled analyses. **[Source: domains/RELSUB/spec.md]**\n\n6.  **Used in Supplemental Qualifiers**: In the **SUPPQUAL** domain, USUBJID is also Required (Req) and is used to link supplemental qualifier records back to their parent records in the main domain. The CDISC Note states: \"This is the value of USUBJID in the parent record(s).\" **[Source: domains/SUPPQUAL/spec.md]**\n\n**Summary**: USUBJID is the **universal, required identifier** that links all subject-level data across SDTM domains. It is the primary key in DM and the foreign key in all other domains, enabling joins between any two domains for the same subject.",
      "elapsed_s": 8.08
    },
    {
      "id": "q09",
      "category": "cross_domain",
      "question": "How are adverse events linked to concomitant medications using RELREC?",
      "source_recall": 0.0,
      "source_hits": [],
      "source_misses": [
        "domains/RELREC/spec.md"
      ],
      "top5_sources": [
        "chapters/ch08_relationships.md",
        "domains/RELREC/examples.md",
        "chapters/ch08_relationships.md",
        "domains/RELREC/assumptions.md",
        "domains/CM/assumptions.md"
      ],
      "top5_similarities": [
        0.6173,
        0.583,
        0.5828,
        0.5376,
        0.537
      ],
      "fact_recall": 1.0,
      "fact_hits": [
        "RELREC",
        "IDVAR",
        "IDVARVAL"
      ],
      "fact_misses": [],
      "answer_preview": "Based on the provided context, adverse events are linked to concomitant medications using the RELREC (Related Records) special-purpose dataset by creating records that share a common relationship identifier (RELID) within a subject (USUBJID).\n\nHere is the detailed mechanism:\n\n1.  **Relationship Definition**: A relationship is defined by adding a record to RELREC for each record to be related and assigning a unique character identifier (RELID). The value of RELID must be identical for all related records within a USUBJID. **[Source: chapters/ch08_relationships.md, 8.2]**\n\n2.  **Key Variables**:",
      "usage": {
        "prompt_tokens": 16198,
        "completion_tokens": 691,
        "total_tokens": 16889
      },
      "model": "deepseek/deepseek-chat",
      "answer": "Based on the provided context, adverse events are linked to concomitant medications using the RELREC (Related Records) special-purpose dataset by creating records that share a common relationship identifier (RELID) within a subject (USUBJID).\n\nHere is the detailed mechanism:\n\n1.  **Relationship Definition**: A relationship is defined by adding a record to RELREC for each record to be related and assigning a unique character identifier (RELID). The value of RELID must be identical for all related records within a USUBJID. **[Source: chapters/ch08_relationships.md, 8.2]**\n\n2.  **Key Variables**: Each record in RELREC uses the following key variables to specify the related records:\n    - `STUDYID`\n    - `RDOMAIN`: The domain code of the record in the relationship (e.g., \"AE\" for Adverse Events, \"CM\" for Concomitant Medications).\n    - `USUBJID`\n    - `IDVAR`: The variable that identifies the specific record(s) within the domain. This is typically the sequence number (`--SEQ`, e.g., `AESEQ`, `CMSEQ`) or a grouping variable (`--GRPID`, e.g., `CMGRPID`).\n    - `IDVARVAL`: The value of the variable specified in `IDVAR`. **[Source: chapters/ch08_relationships.md, 8.2.2; domains/RELREC/assumptions.md]**\n\n3.  **Example Scenario**: The context provides a specific example where a single adverse event is related to two concomitant medications. This is represented in RELREC with three records, all sharing the same `RELID` value (e.g., \"1\"):\n    - One record for the AE domain (e.g., `RDOMAIN=\"AE\"`, `IDVAR=\"AESEQ\"`, `IDVARVAL=\"5\"`).\n    - Two records for the CM domain (e.g., `RDOMAIN=\"CM\"`, `IDVAR=\"CMSEQ\"`, `IDVARVAL=\"11\"` and `IDVARVAL=\"12\"`). **[Source: domains/RELREC/examples.md, Example 1; chapters/ch08_relationships.md, 8.2.2, Example 1]**\n\n4.  **Efficient Grouping**: If the concomitant medications are already grouped within the CM domain using `CMGRPID`, the relationship can be represented more efficiently. Instead of one RELREC record per medication, a single RELREC record can reference the group identifier (e.g., `IDVAR=\"CMGRPID\"`, `IDVARVAL=\"COMBO1\"`). This reduces the number of records needed in RELREC. **[Source: domains/RELREC/examples.md, Example 3; chapters/ch08_relationships.md, 8.2.2, Example 3]**\n\n5.  **Purpose**: This mechanism is used to represent explicit, collected relationships, such as concomitant medications taken as a result of an adverse event. **[Source: domains/RELREC/assumptions.md]**\n\nIn summary, the link is established by creating a set of RELREC records that share a common `RELID` and use `RDOMAIN`, `IDVAR`, and `IDVARVAL` to point to the specific AE and CM records that are related.",
      "elapsed_s": 8.03
    },
    {
      "id": "q10",
      "category": "cross_domain",
      "question": "In oncology studies, how are the TR (Tumor/Lesion Results) domain and RS (Disease Response) domain linked together, and which specific identifier variables are used for each linkage direction?",
      "source_recall": 0.5,
      "source_hits": [
        "domains/TR/assumptions.md"
      ],
      "source_misses": [
        "domains/TR/spec.md"
      ],
      "top5_sources": [
        "domains/RS/assumptions.md",
        "domains/TR/assumptions.md",
        "domains/RS/assumptions.md",
        "domains/TR/assumptions.md",
        "domains/RS/assumptions.md"
      ],
      "top5_similarities": [
        0.713,
        0.7055,
        0.7032,
        0.6926,
        0.67
      ],
      "fact_recall": 1.0,
      "fact_hits": [
        "TRLNKID",
        "TRLNKGRP"
      ],
      "fact_misses": [],
      "answer_preview": "## TR ↔ RS Linkage in Oncology Studies\n\nThe TR (Tumor/Lesion Results) and RS (Disease Response) domains are linked using **dataset-to-dataset RELREC relationships** via the `--LNKGRP` variable. The linkage is unidirectional from TR → RS, meaning TR records contribute to RS response assessments.\n\n### Linkage Mechanism\n\n**Variable used:** `TRLNKGRP` (TR) ↔ `RSLNKGRP` (RS)\n\n- **TRLNKGRP** — Link Group in TR domain (Identifier role, Permissible core) **[Source: VARIABLE_INDEX.md — TR]**\n- **RSLNKGRP** — Link Group in RS domain (Identifier role, Permissible core) **[Source: VARIABLE_INDEX.md — RS]*",
      "usage": {
        "prompt_tokens": 15743,
        "completion_tokens": 945,
        "total_tokens": 16688
      },
      "model": "deepseek/deepseek-chat",
      "answer": "## TR ↔ RS Linkage in Oncology Studies\n\nThe TR (Tumor/Lesion Results) and RS (Disease Response) domains are linked using **dataset-to-dataset RELREC relationships** via the `--LNKGRP` variable. The linkage is unidirectional from TR → RS, meaning TR records contribute to RS response assessments.\n\n### Linkage Mechanism\n\n**Variable used:** `TRLNKGRP` (TR) ↔ `RSLNKGRP` (RS)\n\n- **TRLNKGRP** — Link Group in TR domain (Identifier role, Permissible core) **[Source: VARIABLE_INDEX.md — TR]**\n- **RSLNKGRP** — Link Group in RS domain (Identifier role, Permissible core) **[Source: VARIABLE_INDEX.md — RS]**\n\n### Direction-Specific Rules\n\n#### 1. TR → RS (Tumor/Lesion Results contributing to Response Assessment)\n\n- `TRLNKGRP` is used to relate records in the TR domain to a response assessment record in the RS domain **[Source: domains/TR/assumptions.md — item_2]**\n- A RELREC relationship is required to link the related data rows; a dataset-to-dataset link is the most appropriate mechanism **[Source: domains/TR/assumptions.md — item_2]**\n- `--GRPID`, `--REFID`, and `--SPID` cannot be reused for this purpose as they may be used for other purposes per SDTM **[Source: domains/TR/assumptions.md — item_2]**\n- `TRLNKGRP` provides a unique code for each response and associated tumor/lesion measurements/assessments **[Source: domains/TR/assumptions.md — item_2]**\n\n#### 2. RS ← TR (Response Assessment referencing source data)\n\n- `RSLNKGRP` is used to provide a link between records in a findings domain (e.g., TR, LB) that contribute to a record in the RS domain **[Source: domains/RS/assumptions.md — item_4]**\n- Records should exist in the RELREC dataset to support this relationship **[Source: domains/RS/assumptions.md — item_4]**\n- A RELREC relationship could also be defined using `RSLNKID` when a response evaluation relates back to another source dataset (e.g., tumor assessment in TR) **[Source: domains/RS/assumptions.md — item_4]**\n\n### Example from RS Examples\n\nFrom the RECIST 1.1 example in RS:\n\n| Row | RSLNKGRP | RSTESTCD | RSTEST | VISIT |\n|-----|----------|----------|--------|-------|\n| 3 | A2 | OVRLRESP | Overall Response | WEEK 6 |\n| 7 | A3 | OVRLRESP | Overall Response | WEEK 12 |\n\n**[Source: domains/RS/examples.md — RS Examples - Disease Response]**\n\nThe `RSLNKGRP` values (A2, A3) would correspond to `TRLNKGRP` values in the TR domain for the same visit, linked via a RELREC record.\n\n### Important Distinction: TR ↔ TU vs. TR ↔ RS\n\n| Linkage | Variable | Purpose |\n|---------|----------|---------|\n| **TR ↔ TU** | `TRLNKID` ↔ `TULNKID` | Links tumor/lesion identification records (TU) to their measurements/assessments (TR) **[Source: domains/TR/assumptions.md — item_1]** |\n| **TR ↔ RS** | `TRLNKGRP` ↔ `RSLNKGRP` | Links tumor/lesion measurement records (TR) to response assessment records (RS) **[Source: domains/TR/assumptions.md — item_2]** |\n\n### Summary\n\n- **TR → RS linkage uses `TRLNKGRP` / `RSLNKGRP`** (not `--LNKID`)\n- A **RELREC dataset-to-dataset relationship** is required\n- The domain in which source data reside (TR, LB, or others) does not affect whether a RELREC link to RS is created **[Source: domains/RS/assumptions.md — item_4]**\n- This design was chosen because `--GRPID`, `--REFID`, and `--SPID` may be used for other purposes **[Source: domains/TR/assumptions.md — item_2]**",
      "elapsed_s": 9.97
    },
    {
      "id": "q28",
      "category": "cross_domain",
      "question": "What is the FA (Findings About Events or Interventions) domain and how does it link to parent domains like AE or CM using FAOBJ?",
      "source_recall": 1.0,
      "source_hits": [
        "domains/FA/spec.md"
      ],
      "source_misses": [],
      "top5_sources": [
        "domains/FA/assumptions.md",
        "domains/FA/assumptions.md",
        "model/02_observation_classes.md",
        "domains/FA/assumptions.md",
        "domains/FA/assumptions.md"
      ],
      "top5_similarities": [
        0.6937,
        0.6555,
        0.6529,
        0.646,
        0.6434
      ],
      "fact_recall": 1.0,
      "fact_hits": [
        "Findings About",
        "FAOBJ",
        "FATESTCD"
      ],
      "fact_misses": [],
      "answer_preview": "## FA (Findings About Events or Interventions) Domain\n\n### Overview\n\nThe FA domain is a **Findings About** subtype of the Findings Observation Class, used to record findings related to observations in the Interventions or Events classes. **[Source: model/02_observation_classes.md — 3.1.3 The Findings Observation Class]**\n\n**Structure:** One Record per Finding\n\n### Key Variables\n\n| Variable | Label | Type | Role | Core |\n|----------|-------|------|------|------|\n| FATESTCD | Findings About Test Short Name | Char | Topic | Req |\n| FATEST | Findings About Test Name | Char | Synonym Qualifier | Re",
      "usage": {
        "prompt_tokens": 14986,
        "completion_tokens": 1340,
        "total_tokens": 16326
      },
      "model": "deepseek/deepseek-chat",
      "answer": "## FA (Findings About Events or Interventions) Domain\n\n### Overview\n\nThe FA domain is a **Findings About** subtype of the Findings Observation Class, used to record findings related to observations in the Interventions or Events classes. **[Source: model/02_observation_classes.md — 3.1.3 The Findings Observation Class]**\n\n**Structure:** One Record per Finding\n\n### Key Variables\n\n| Variable | Label | Type | Role | Core |\n|----------|-------|------|------|------|\n| FATESTCD | Findings About Test Short Name | Char | Topic | Req |\n| FATEST | Findings About Test Name | Char | Synonym Qualifier | Req |\n| FAOBJ | Object of the Observation | Char | Record Qualifier | Req |\n| FAORRES | Result or Finding in Original Units | Char | Result Qualifier | Exp |\n| FASTRESC | Character Result/Finding in Std Format | Char | Result Qualifier | Exp |\n| FADTC | Date/Time of Collection | Char | Timing | Exp |\n\n**[Source: VARIABLE_INDEX.md — FA]**\n\n### FAOBJ Definition\n\n**FAOBJ** (Object of the Observation) is a **Record Qualifier** with **Core: Req**. It describes the object or focal point of the findings observation represented by --TEST. Examples include the term describing a clinical sign/symptom being measured (e.g., \"Acne\" for a severity test) or an event (e.g., \"VOMIT\" where volume is being measured). **[Source: domains/FA/spec.md — FAOBJ]**\n\n---\n\n## Linking FA to Parent Domains via FAOBJ\n\n### Mechanism\n\nFAOBJ is populated with the **name of the event or intervention** about which the finding was made. When the parent record exists in another domain (e.g., AE, CM), FAOBJ typically contains the value of the parent's coded term variable (e.g., AEDECOD for AE, CMTRT for CM). **[Source: domains/FA/assumptions.md — item_6]**\n\n### Three Criteria for Using FA (from §6.4.1)\n\n1. **Different timing from parent event/intervention as a whole** — e.g., severity assessed at each visit for an ongoing AE\n2. **Requires more than 1 variable** — preventing representation as a supplemental qualifier\n3. **Indicates occurrence of prespecified AEs** — e.g., solicited symptom checklists at each visit\n\n**[Source: domains/FA/assumptions.md — item_6]**\n\n### FATESTCD Values for Qualifier Variables\n\nWhen collected data fit a qualifier variable from the parent domain, the variable name is used as FATESTCD:\n\n| FATESTCD | FATEST | Source |\n|----------|--------|--------|\n| OCCUR | Occurrence Indicator | Events qualifier |\n| SEV | Severity/Intensity | Events qualifier |\n| TOXGR | Toxicity Grade | Events qualifier |\n\n**[Source: model/02_observation_classes.md — §6.4.3]**\n\n### RELREC Requirement\n\nFAOBJ alone is **not sufficient** to establish a relationship because a parent domain may have multiple records for the same topic (e.g., multiple AE records with AEDECOD=\"Headache\"). When data collection establishes a relationship between FA records and an events/interventions record, the relationship should be represented in **RELREC**. **[Source: domains/FA/assumptions.md — item_5]**\n\n---\n\n## Example: FA Linked to AE\n\n### Scenario (Example 6)\nA sponsor collects AE severity at each visit for ongoing AEs. The AE record captures the overall event (start/end dates, maximum severity), while FA captures severity snapshots at each visit.\n\n**ae.xpt** (parent record):\n| USUBJID | AESEQ | AEDECOD | AESEV | AESTDTC | AEENDTC |\n|---------|-------|---------|-------|---------|---------|\n| 123 | 1 | Nausea | MODERATE | 2006-02-01 | 2006-02-23 |\n\n**faae.xpt** (findings about):\n| USUBJID | FASEQ | FATESTCD | FATEST | FAOBJ | FAORRES | VISIT | FADTC |\n|---------|-------|----------|--------|-------|---------|-------|-------|\n| 123 | 1 | SEV | Severity/Intensity | Nausea | MILD | VISIT 2 | 2006-02-02 |\n| 123 | 2 | SEV | Severity/Intensity | Nausea | MODERATE | VISIT 3 | 2006-02-09 |\n\nFAOBJ=\"Nausea\" matches AEDECOD from the AE record. **[Source: domains/FA/examples.md — Example 6]**\n\n### Example: Prespecified AE Occurrence (Example 4)\n\n**faae.xpt**:\n| USUBJID | FATESTCD | FATEST | FAOBJ | FAORRES | VISIT |\n|---------|----------|--------|-------|---------|-------|\n| 1234 | OCCUR | Occurrence Indicator | Headache | Y | VISIT 2 |\n| 1234 | OCCUR | Occurrence Indicator | Nausea | Y | VISIT 3 |\n\n**ae.xpt** (with AEPRESP=\"Y\"):\n| USUBJID | AEDECOD | AEPRESP | AESTDTC |\n|---------|---------|---------|---------|\n| 1234 | Headache | Y | 2005-09-30 |\n| 1234 | Nausea | Y | 2005-10-08 |\n\nFAOBJ links to AEDECOD, and AEPRESP=\"Y\" flags these as prespecified AEs. **[Source: domains/FA/examples.md — Example 4]**\n\n---\n\n## Related Domains\n\n- **Same class (Findings About):** SR (Skin Response)\n- **Source Domains:** AE, CM, PR (linked via FAOBJ + optional RELREC)\n- **Parent Events class:** AE, BE, CE, DS, DV, HO, MH\n\n**[Source: domains/AE/spec.md — Related Domains; domains/SR/spec.md — Related Domains]**",
      "elapsed_s": 13.84
    },
    {
      "id": "q29",
      "category": "cross_domain",
      "question": "How do the four Trial Design domains TA (Trial Arms), TE (Trial Elements), TV (Trial Visits), and TI (Trial Inclusion/Exclusion) work together to define a study design?",
      "source_recall": 1.0,
      "source_hits": [
        "domains/TA/assumptions.md",
        "domains/TE/assumptions.md"
      ],
      "source_misses": [],
      "top5_sources": [
        "domains/TA/spec.md",
        "domains/TV/spec.md",
        "domains/TE/assumptions.md",
        "domains/TE/spec.md",
        "domains/TA/assumptions.md"
      ],
      "top5_similarities": [
        0.7568,
        0.7534,
        0.7359,
        0.7352,
        0.7245
      ],
      "fact_recall": 1.0,
      "fact_hits": [
        "TA",
        "TE",
        "TV",
        "TI"
      ],
      "fact_misses": [],
      "answer_preview": "# How TA, TE, TV, and TI Work Together to Define a Study Design\n\nThese four Trial Design domains describe different aspects of a clinical trial's planned conduct, and they are linked through shared identifiers and hierarchical relationships.\n\n## 1. TA (Trial Arms) — The Master Blueprint\n\nTA defines the **planned path** through the trial for each arm. It contains one record per study cell (arm × epoch combination), ordered by `TAETORD`.\n\n- Each record identifies which **element** (`ETCD`, `ELEMENT`) occurs in which **epoch** (`EPOCH`) for a given **arm** (`ARMCD`, `ARM`)\n- `TABRANCH` describes ",
      "usage": {
        "prompt_tokens": 14040,
        "completion_tokens": 1027,
        "total_tokens": 15067
      },
      "model": "deepseek/deepseek-chat",
      "answer": "# How TA, TE, TV, and TI Work Together to Define a Study Design\n\nThese four Trial Design domains describe different aspects of a clinical trial's planned conduct, and they are linked through shared identifiers and hierarchical relationships.\n\n## 1. TA (Trial Arms) — The Master Blueprint\n\nTA defines the **planned path** through the trial for each arm. It contains one record per study cell (arm × epoch combination), ordered by `TAETORD`.\n\n- Each record identifies which **element** (`ETCD`, `ELEMENT`) occurs in which **epoch** (`EPOCH`) for a given **arm** (`ARMCD`, `ARM`)\n- `TABRANCH` describes decision rules for transitioning between elements (e.g., randomization, response evaluation)\n- `TATRANS` describes transition events between study cells\n\n**[Source: domains/TA/assumptions.md]**\n\n## 2. TE (Trial Elements) — The Building Blocks\n\nTE defines the **reusable time intervals** (elements) that compose the arms. Each element appears **only once** in TE, even if it appears multiple times across arms or within an arm.\n\n- `ETCD` / `ELEMENT`: Unique element identifier and description\n- `TESTRL`: Rule for when the element **starts** (e.g., \"Informed Consent\")\n- `TEENRL`: Rule for when the element **ends** (e.g., \"5 days after start of Element\")\n- `TEDUR`: Planned duration (ISO 8601 format, e.g., `P5D` for 5 days)\n\n**Key relationship**: TA references TE via `ETCD`. An element may appear in multiple study cells across different arms and epochs.\n\n**[Source: domains/TE/assumptions.md]**\n\n## 3. TV (Trial Visits) — The Data Collection Schedule\n\nTV defines the **planned visits** at which data are collected, including their timing relative to elements or epochs.\n\n- `VISITNUM` / `VISIT`: Unique visit identifier and description\n- Visit start rules are expressed relative to element/epoch start or end (e.g., \"1-2 hours before end of First Wash-out\")\n- Visit end rules describe when a visit should end\n- Contingent visits (triggered by events or disease milestones) may be included with conditional rules\n\n**Key relationship**: TV visits are scheduled within the elements defined by TE and the arms defined by TA. The `SE` domain (Subject Elements) links planned visits to actual subject experience.\n\n**[Source: domains/TV/examples.md]**\n\n## 4. TI (Trial Inclusion/Exclusion Criteria) — Subject Eligibility\n\nTI defines **all inclusion and exclusion criteria** for the trial in a tabular synopsis of the protocol.\n\n- `IETESTCD` / `IETEST`: Criterion identifier and description\n- `IECAT`: Category (Inclusion or Exclusion)\n- `IERL`: Reserved for future computer-executable representation (not yet developed)\n\n**Key relationship**: TI provides the eligibility rules that determine which subjects enter which arms. The subject-level `IE` domain (Inclusion/Exclusion Criteria Not Met) records only criteria that subjects **failed**, while TI contains the complete set.\n\n**[Source: domains/TI/assumptions.md]**\n\n## How They Fit Together\n\n| Domain | Role | Key Linkage |\n|--------|------|-------------|\n| **TA** | Defines arms as sequences of elements across epochs | References `ETCD` from TE |\n| **TE** | Defines reusable time intervals (elements) with start/end rules | Referenced by TA via `ETCD` |\n| **TV** | Defines visit schedule within elements/epochs | Timed relative to TE elements; linked to SE for actual subject data |\n| **TI** | Defines eligibility criteria for subject enrollment | Determines which subjects enter which arms |\n\n**Example flow for a simple parallel trial** (Example 1 from TA):\n\n1. **TE** defines 3 elements: Screen, Run-In, Placebo/Drug A/Drug B (5 unique elements)\n2. **TA** defines 3 arms (Placebo, Drug A, Drug B), each as a sequence: Screen → Run-In → Treatment element\n3. **TV** defines visits (e.g., Screening Visit, Baseline Visit, Treatment Visits) timed relative to element starts\n4. **TI** defines inclusion/exclusion criteria that subjects must meet before randomization into arms\n\n**[Source: domains/TA/examples.md — Example 1]**\n\nAll four domains share `STUDYID` and belong to the **Trial Design** class, along with TD, TM, and TS.\n\n**[Source: domains/TA/spec.md — Related Domains; domains/TE/spec.md — Related Domains; domains/TV/spec.md — Related Domains; domains/TI/spec.md — Related Domains]**",
      "elapsed_s": 13.37
    },
    {
      "id": "q30",
      "category": "cross_domain",
      "question": "What is the CO (Comments) domain and how does it reference records in other SDTM domains? Describe the RDOMAIN and IDVAR mechanism.",
      "source_recall": 1.0,
      "source_hits": [
        "domains/CO/spec.md",
        "domains/CO/assumptions.md"
      ],
      "source_misses": [],
      "top5_sources": [
        "domains/CO/assumptions.md",
        "domains/CO/assumptions.md",
        "model/03_special_purpose_domains.md",
        "chapters/ch08_relationships.md",
        "domains/CO/assumptions.md"
      ],
      "top5_similarities": [
        0.7154,
        0.6876,
        0.6819,
        0.6728,
        0.6547
      ],
      "fact_recall": 1.0,
      "fact_hits": [
        "COVAL",
        "RDOMAIN",
        "IDVAR"
      ],
      "fact_misses": [],
      "answer_preview": "## CO (Comments) Domain — Overview and Record Referencing Mechanism\n\n### What is the CO Domain?\n\nThe Comments (CO) domain is a **Special-purpose Domain** that captures free-text comments that are not part of normal domain data. Comments are normally supplied by a principal investigator but may also come from other sources such as central reviewers. **[Source: model/03_special_purpose_domains.md]**\n\n**Structure:** One record per comment per subject. **[Source: domains/CO/assumptions.md — item_2]**\n\n**Key characteristics:**\n- Comments are generally **not responses to specific questions**; they c",
      "usage": {
        "prompt_tokens": 11244,
        "completion_tokens": 1416,
        "total_tokens": 12660
      },
      "model": "deepseek/deepseek-chat",
      "answer": "## CO (Comments) Domain — Overview and Record Referencing Mechanism\n\n### What is the CO Domain?\n\nThe Comments (CO) domain is a **Special-purpose Domain** that captures free-text comments that are not part of normal domain data. Comments are normally supplied by a principal investigator but may also come from other sources such as central reviewers. **[Source: model/03_special_purpose_domains.md]**\n\n**Structure:** One record per comment per subject. **[Source: domains/CO/assumptions.md — item_2]**\n\n**Key characteristics:**\n- Comments are generally **not responses to specific questions**; they consist of voluntary free-text or unsolicited observations. **[Source: domains/CO/assumptions.md — item_1]**\n- When comment text exceeds 200 characters, the first 200 characters go in COVAL, the next 200 in COVAL1, and so on (COVALn). **[Source: domains/CO/assumptions.md — item_4]**\n- Comments should **not** be submitted as Supplemental Qualifiers (SUPP--); they belong in the CO domain. **[Source: chapters/ch08_relationships.md — 8.4.4]**\n\n### CO Variable List (15 variables)\n\n| # | Variable | Label | Type | Role | Core |\n|---|----------|-------|------|------|------|\n| 1 | STUDYID | Study Identifier | Char | Identifier | Req |\n| 2 | DOMAIN | Domain Abbreviation | Char | Identifier | Req |\n| 3 | RDOMAIN | Related Domain Abbreviation | Char | Record Qualifier | Perm |\n| 4 | USUBJID | Unique Subject Identifier | Char | Identifier | Req |\n| 5 | POOLID | Pool Identifier | Char | Identifier | Perm |\n| 6 | SPDEVID | Sponsor Device Identifier | Char | Identifier | Perm |\n| 7 | COSEQ | Sequence Number | Num | Identifier | Req |\n| 8 | IDVAR | Identifying Variable | Char | Record Qualifier | Perm |\n| 9 | IDVARVAL | Identifying Variable Value | Char | Record Qualifier | Perm |\n| 10 | COREF | Comment Reference | Char | Record Qualifier | Perm |\n| 11 | COVAL | Comment | Char | Topic | Req |\n| 12 | COEVAL | Evaluator | Char | Record Qualifier | Perm |\n| 13 | COEVALID | Evaluator Identifier | Char | Variable Qualifier | Perm |\n| 14 | CODTC | Date/Time of Comment | Char | Timing | Perm |\n| 15 | CODY | Study Day of Comment | Num | Timing | Perm |\n\n**[Source: model/03_special_purpose_domains.md — Comments (CO)]**\n\n### RDOMAIN and IDVAR Mechanism\n\nThe CO domain uses **RDOMAIN, IDVAR, and IDVARVAL** to reference parent records in other SDTM domains. This mechanism is structurally similar to Supplemental Qualifiers (SUPP--). **[Source: chapters/ch08_relationships.md — 8.5]**\n\n#### Three Levels of Comment Association\n\nThe CO domain accommodates **3 sources of comments**, distinguished by how RDOMAIN, IDVAR, and IDVARVAL are populated: **[Source: domains/CO/assumptions.md — item_3]**\n\n**1. Comments unrelated to a specific domain or parent record(s)**\n- **RDOMAIN:** null\n- **IDVAR:** null\n- **IDVARVAL:** null\n- **CODTC:** populated if captured\n- *Example:* General comment log page, not associated with any domain\n\n**2. Comments related to a domain but not to specific parent record(s)**\n- **RDOMAIN:** set to the DOMAIN code of the parent domain (e.g., \"AE\")\n- **IDVAR:** null\n- **IDVARVAL:** null\n- **CODTC:** populated if captured\n- *Example:* A comment about adverse events in general for a subject\n\n**3. Comments related to a specific parent record or group of records**\n- **RDOMAIN:** set to the DOMAIN code of the parent record(s)\n- **IDVAR:** populated with the key variable name of the parent record (e.g., \"AESEQ\" or \"CMGRPID\")\n- **IDVARVAL:** populated with the value of that key variable\n- **CODTC:** **null** (timing is inherited from the parent record)\n- *Example:* A comment about a specific adverse event record\n\n#### RDOMAIN Variable Definition\n\n| Attribute | Value |\n|-----------|-------|\n| **Label** | Related Domain Abbreviation |\n| **Type** | Char |\n| **Controlled Terms** | C66734 (SDTM Domain Abbreviation) |\n| **Role** | Record Qualifier |\n| **Core** | Perm |\n| **CDISC Notes** | Two-character abbreviation for the domain of the parent record(s). Null for comments collected on a general comments or additional information CRF page. |\n\n**[Source: domains/CO/spec.md — RDOMAIN]**\n\n#### IDVAR Variable Definition\n\n| Attribute | Value |\n|-----------|-------|\n| **Label** | Identifying Variable |\n| **Type** | Char |\n| **Controlled Terms** | (none) |\n| **Role** | Record Qualifier |\n| **Core** | Perm |\n| **CDISC Notes** | Identifying variable in the parent dataset that identifies the record(s) to which the comment applies. Examples: AESEQ or CMGRPID. Used only when individual comments are related to domain records. Null for comments collected on separate CRFs. |\n\n**[Source: domains/CO/spec.md — IDVAR]**\n\n#### Additional Notes on the Mechanism\n\n- **Grouping via --GRPID:** As with SUPP-- and RELREC, grouping variables (e.g., --GRPID) can be used as the value in IDVAR to relate a comment to multiple records in the same domain. **[Source: chapters/ch08_relationships.md — 8.5]**\n- **Single domain limitation:** A single comment can only relate to records in **one domain** (RDOMAIN can have only one value). If a comment relates to records in multiple domains, the comment must be repeated in CO. **[Source: chapters/ch08_relationships.md — 8.5]**\n- **COREF:** Additional information about the comment relationship (e.g., CRF page number) can be placed in COREF. **[Source: chapters/ch08_relationships.md — 8.5]**\n- **Timing variables:** VISITNUM, VISIT, and other timing variables may be added to the CO domain when needed. **[Source: chapters/ch08_relationships.md — 8.5]**",
      "elapsed_s": 12.87
    },
    {
      "id": "q31",
      "category": "cross_domain",
      "question": "How are the EC (Exposure as Collected) and EX (Exposure) domains different in purpose, and when should each be used?",
      "source_recall": 1.0,
      "source_hits": [
        "domains/EC/assumptions.md"
      ],
      "source_misses": [],
      "top5_sources": [
        "domains/EX/assumptions.md",
        "domains/EC/assumptions.md",
        "domains/EX/spec.md",
        "domains/EX/assumptions.md",
        "domains/EX/assumptions.md"
      ],
      "top5_similarities": [
        0.7328,
        0.7317,
        0.5963,
        0.5907,
        0.587
      ],
      "fact_recall": 1.0,
      "fact_hits": [
        "collected",
        "EX",
        "EC"
      ],
      "fact_misses": [],
      "answer_preview": "## EC vs EX: Purpose and Usage\n\n### Core Distinction\n\n**EC (Exposure as Collected)** represents study treatment administrations **as they were actually collected/recorded** at the point of data capture, in the original units and format from the source.\n\n**EX (Exposure)** represents study treatment administrations **in the protocol-specified unit**, typically as a **derived dataset** that may transform, summarize, or convert the collected data.\n\n**[Source: domains/EC/assumptions.md item_1]**\n**[Source: domains/EX/assumptions.md item_1b]**\n\n---\n\n### When to Use EC\n\nEC **should** be used when:\n1.",
      "usage": {
        "prompt_tokens": 14894,
        "completion_tokens": 1184,
        "total_tokens": 16078
      },
      "model": "deepseek/deepseek-chat",
      "answer": "## EC vs EX: Purpose and Usage\n\n### Core Distinction\n\n**EC (Exposure as Collected)** represents study treatment administrations **as they were actually collected/recorded** at the point of data capture, in the original units and format from the source.\n\n**EX (Exposure)** represents study treatment administrations **in the protocol-specified unit**, typically as a **derived dataset** that may transform, summarize, or convert the collected data.\n\n**[Source: domains/EC/assumptions.md item_1]**\n**[Source: domains/EX/assumptions.md item_1b]**\n\n---\n\n### When to Use EC\n\nEC **should** be used when:\n1. **Collected units differ from protocol-specified units** — e.g., tablets collected but protocol specifies mg, or mL collected but protocol specifies mg/kg **[Source: domains/EC/assumptions.md item_1a]**\n2. **Multiple administrations constitute a single dose** — e.g., 3 injections of 5 mL each = 1 total dose of 3 mg/kg **[Source: domains/EX/examples.md Example 2]**\n3. **Non-occurrence needs to be recorded** — EC can represent missed doses (ECOCCUR = \"N\") with reasons (ECREASOC); EX does not include non-occurrences **[Source: domains/EX/examples.md Example 1]**\n4. **Both intended (scheduled) and actual (performed) doses are collected** — EC uses ECMOOD to distinguish between \"SCHEDULED\" and \"PERFORMED\" records **[Source: domains/EX/examples.md Example 7]**\n5. **Detailed administration-level data is needed** — e.g., individual injection sites, laterality, time-point (AM/PM) **[Source: domains/EX/examples.md Example 2, Example 5]**\n\nEC is **optional** if the entire EC dataset would be an exact duplicate of the EX dataset (sponsor discretion). **[Source: domains/EC/assumptions.md item_1b]**\n\n---\n\n### When to Use EX\n\nEX **should** be used when:\n1. **Protocol-specified study treatment is administered** — EX is **required** for all studies with protocol-specified study treatment **[Source: domains/EX/assumptions.md item_1c]**\n2. **Dose needs to be expressed in protocol-specified units** — e.g., converting 2 tablets to 1000 mg, or 99 mL at 5.5 mg/mL to 3 mg/kg **[Source: domains/EX/examples.md Example 1, Example 2]**\n3. **Blinding/unmasking is involved** — EX contains the unmasked treatment identity (e.g., DRUG X vs DRUG Z vs PLACEBO) while EC may use blinded labels (e.g., BOTTLE A) **[Source: domains/EX/examples.md Example 1]**\n4. **Constant-dosing intervals need representation** — EX should contain 1 record per constant-dosing interval per subject **[Source: domains/EX/assumptions.md item_1d]**\n5. **Derived exposure calculations are needed** — EX records may be derived from actual observation, automated devices, subject recall, product accountability, or protocol **[Source: domains/EX/assumptions.md item_1c]**\n\nEX **does not** include:\n- Non-occurrences (missed doses) — these are gaps in EX records, not separate records **[Source: domains/EX/examples.md Example 1]**\n- Collected volume amounts (EXVAMT/EXVAMTU) when EC is implemented — those go in EC instead **[Source: domains/EX/assumptions.md item_6c]**\n\n---\n\n### Relationship Between EC and EX\n\n| Aspect | EC | EX |\n|--------|----|----|\n| **Nature** | As-collected (source data) | Derived (transformed) |\n| **Unit** | Original unit (tablets, mL) | Protocol-specified unit (mg, mg/kg) |\n| **Treatment identity** | May be blinded (BOTTLE A) | Unmasked (DRUG X) |\n| **Non-occurrence** | Recorded (ECOCCUR = \"N\") | Not recorded (gap in dates) |\n| **Scheduled vs actual** | Both possible (ECMOOD) | Actual only |\n| **Granularity** | Administration-level | Constant-dosing interval |\n| **Required?** | Optional (if duplicate of EX) | Required for protocol-specified treatment |\n\nWhen both EC and EX are used, the relationship can be documented in **RELREC** using --LNKID variables. The relationship may be:\n- **One-to-one** (e.g., 1 EC record → 1 EX record) **[Source: domains/EX/examples.md Example 1]**\n- **Many-to-one** (e.g., 3 EC injection records → 1 EX total dose record) **[Source: domains/EX/examples.md Example 2]**\n\n**[Source: domains/EC/assumptions.md item_6]**\n**[Source: domains/EX/assumptions.md item_5]**\n\n---\n\n### Key Rule Summary\n\n> **EC = what was collected, in the units collected.**\n> **EX = what was given, in the protocol-specified unit.**\n\nIf the collected data is already in the protocol-specified unit and no transformation is needed, EC is optional. If transformation is needed (different units, multiple administrations combined, blinding), both EC and EX should be used with RELREC to link them. **[Source: domains/EC/assumptions.md item_1b]**",
      "elapsed_s": 13.84
    },
    {
      "id": "q32",
      "category": "cross_domain",
      "question": "How is VISIT and VISITNUM used consistently across observation-class domains, and what role does the SV (Subject Visits) domain play in tracking actual visit dates?",
      "source_recall": 0.5,
      "source_hits": [
        "domains/SV/assumptions.md"
      ],
      "source_misses": [
        "domains/SV/spec.md"
      ],
      "top5_sources": [
        "model/03_special_purpose_domains.md",
        "domains/TV/assumptions.md",
        "domains/FA/spec.md",
        "domains/AG/spec.md",
        "chapters/ch04_general_assumptions.md"
      ],
      "top5_similarities": [
        0.7044,
        0.6997,
        0.6681,
        0.6666,
        0.6665
      ],
      "fact_recall": 1.0,
      "fact_hits": [
        "VISIT",
        "VISITNUM",
        "SV"
      ],
      "fact_misses": [],
      "answer_preview": "## VISIT and VISITNUM Usage Across Observation-Class Domains\n\n### Variable Definitions\n\n**VISITNUM**\n- **Label:** Visit Number\n- **Type:** Num\n- **Role:** Timing\n- **Core:** Expected (Exp)\n- **Controlled Terms:** None\n- **CDISC Notes:** Clinical encounter number. Numeric version of VISIT, used for sorting.\n  **[Source: domains/FA/spec.md, domains/AG/spec.md, domains/PE/spec.md, domains/RP/spec.md, domains/BS/spec.md, domains/TR/spec.md, domains/DA/spec.md, domains/FT/spec.md, domains/PC/spec.md]**\n\n**VISIT**\n- **Label:** Visit Name\n- **Type:** Char\n- **Role:** Timing\n- **Core:** Permissible (P",
      "usage": {
        "prompt_tokens": 10188,
        "completion_tokens": 1352,
        "total_tokens": 11540
      },
      "model": "deepseek/deepseek-chat",
      "answer": "## VISIT and VISITNUM Usage Across Observation-Class Domains\n\n### Variable Definitions\n\n**VISITNUM**\n- **Label:** Visit Number\n- **Type:** Num\n- **Role:** Timing\n- **Core:** Expected (Exp)\n- **Controlled Terms:** None\n- **CDISC Notes:** Clinical encounter number. Numeric version of VISIT, used for sorting.\n  **[Source: domains/FA/spec.md, domains/AG/spec.md, domains/PE/spec.md, domains/RP/spec.md, domains/BS/spec.md, domains/TR/spec.md, domains/DA/spec.md, domains/FT/spec.md, domains/PC/spec.md]**\n\n**VISIT**\n- **Label:** Visit Name\n- **Type:** Char\n- **Role:** Timing\n- **Core:** Permissible (Perm)\n- **Controlled Terms:** None\n- **CDISC Notes:** 1. Protocol-defined description of clinical encounter. 2. May be used in addition to VISITNUM and/or VISITDY.\n  **[Source: domains/AG/spec.md, domains/FA/spec.md]**\n\n### Consistency Rules Across Observation-Class Domains\n\n1. **One-to-One Relationship**: There must be a one-to-one relationship between VISIT and VISITNUM. Each VISITNUM value corresponds to exactly one VISIT name, and vice versa. **[Source: chapters/ch04_general_assumptions.md §4.4.5]**\n\n2. **Planned Visit Values**: For planned visits, values of VISIT, VISITNUM, and VISITDY must be those defined in the Trial Visits (TV) dataset. The TV dataset defines the valid VISITNUM values for planned visits. **[Source: chapters/ch04_general_assumptions.md §4.4.5; domains/TV/assumptions.md item 6]**\n\n3. **Sorting Purpose**: VISITNUM is numeric and used for sorting; values should match the planned chronological order of visits whenever possible. **[Source: chapters/ch04_general_assumptions.md §4.4.5]**\n\n4. **Unplanned Visit Handling**: \n   - VISITNUM should generally be populated even for unplanned visits (e.g., assigning value 99 to all unplanned visits, or using decimal values like 3.1 for chronological sorting).\n   - VISIT may be left null or populated with a generic value like \"Unscheduled\".\n   - VISITDY must **not** be populated for unplanned visits (it is the planned study day, not actual). **[Source: chapters/ch04_general_assumptions.md §4.4.5]**\n\n5. **Domain Applicability**: VISITNUM is **Expected (Exp)** in all Findings, Events, and Interventions domains. VISIT is **Permissible (Perm)** across these domains. All three general observation classes (Interventions, Events, Findings) should have at least one timing variable; for Findings domains, at least one timing variable is mandatory. **[Source: chapters/ch04_general_assumptions.md §4.4.5; multiple domain spec files]**\n\n### Role of the SV (Subject Visits) Domain\n\nThe **Subject Visits (SV)** domain is a **Special Purpose** domain that tracks actual visit experiences for each subject. Its structure is **one record per actual or planned visit per subject**. **[Source: model/03_special_purpose_domains.md]**\n\n**Key Functions of SV:**\n\n1. **Actual vs. Planned Comparison**: The SV dataset provides a summary of a subject's actual visits over the course of their participation. Comparing SV with the TV dataset (planned visits) supports identification of planned but not completed visits. **[Source: domains/SV/assumptions.md]**\n\n2. **Actual Date Tracking**: SV captures actual visit start and end dates via:\n   - **SVSTDTC** (Start Date/Time of Visit) — Timing role\n   - **SVENDTC** (End Date/Time of Visit) — Timing role\n   - **SVSTDY** (Study Day of Start of Visit) — Timing role\n   - **SVENDY** (Study Day of End of Visit) — Timing role\n   **[Source: model/03_special_purpose_domains.md]**\n\n3. **Timing Deviation Detection**: Comparison of SVSTDY and SVENDY to VISIT and/or VISITDY can highlight departures from planned visit timing. **[Source: domains/SV/assumptions.md]**\n\n4. **Unplanned Visit Description**: SV includes **SVUPDES** (Description of Unplanned Visit) to document unplanned visits that are not in the TV dataset. **[Source: model/03_special_purpose_domains.md]**\n\n5. **Visit Occurrence Tracking**: SV captures whether a visit actually occurred via **SVOCCUR** (Occurrence) and the reason via **SVREASOC** (Reason for Occurrence Value). **[Source: model/03_special_purpose_domains.md]**\n\n### Relationship Between TV, SV, and Subject-Level Domains\n\n- **TV** defines the planned visit schedule (VISITNUM, VISIT, VISITDY).\n- **SV** records which visits actually occurred for each subject, with actual dates.\n- **Subject-level domains** (e.g., LB, VS, AE) use VISITNUM/VISIT to indicate when data were collected. Any VISITNUM appearing in subject-level datasets that is **not** in TV is assumed to correspond to an unplanned visit. **[Source: domains/TV/assumptions.md item 6]**\n\n### Example (from SDTMIG)\n\n| USUBJID | VISIT | VISITNUM | VISITDY | LBDY |\n|---------|-------|----------|---------|------|\n| 001 | Week 1 | 2 | | |\n| 001 | Week 2 | 3 | 14 | 13 |\n| 001 | Week 2 Unscheduled | 3.1 | | 17 |\n\nThis example shows: planned visits (Week 1, Week 2) with VISITDY populated, and an unplanned visit (\"Week 2 Unscheduled\") with VISITNUM=3.1 for chronological sorting but no VISITDY. The actual study day (LBDY=17) is captured in the --DY variable instead. **[Source: chapters/ch04_general_assumptions.md §4.4.5]**",
      "elapsed_s": 13.25
    },
    {
      "id": "q33",
      "category": "cross_domain",
      "question": "What is the RELSPEC domain and how does it define relationships between datasets at the study level, as opposed to RELREC which links individual records?",
      "source_recall": 0.0,
      "source_hits": [],
      "source_misses": [
        "domains/RELSPEC/spec.md"
      ],
      "top5_sources": [
        "chapters/ch08_relationships.md",
        "domains/RELSPEC/assumptions.md",
        "domains/RELSPEC/assumptions.md",
        "domains/RELREC/assumptions.md",
        "chapters/ch08_relationships.md"
      ],
      "top5_similarities": [
        0.7982,
        0.7933,
        0.7814,
        0.7707,
        0.7621
      ],
      "fact_recall": 1.0,
      "fact_hits": [
        "RELSPEC",
        "RELREC"
      ],
      "fact_misses": [],
      "answer_preview": "## RELSPEC Domain Overview\n\n**RELSPEC** (Related Specimens) is a special-purpose relationship dataset used to represent relationships **between specimens**, specifically to enable representation of specimen lineage (e.g., parent specimen to derived aliquots or processed specimens). **[Source: model/06_relationship_datasets.md §6.7]**\n\n### Key Characteristics\n\n- **Structure**: One record per specimen identifier per subject **[Source: model/06_relationship_datasets.md §6.7]**\n- **Purpose**: Maintains relationships between specimens only — it does **not** manage relationships between any other da",
      "usage": {
        "prompt_tokens": 13413,
        "completion_tokens": 1038,
        "total_tokens": 14451
      },
      "model": "deepseek/deepseek-chat",
      "answer": "## RELSPEC Domain Overview\n\n**RELSPEC** (Related Specimens) is a special-purpose relationship dataset used to represent relationships **between specimens**, specifically to enable representation of specimen lineage (e.g., parent specimen to derived aliquots or processed specimens). **[Source: model/06_relationship_datasets.md §6.7]**\n\n### Key Characteristics\n\n- **Structure**: One record per specimen identifier per subject **[Source: model/06_relationship_datasets.md §6.7]**\n- **Purpose**: Maintains relationships between specimens only — it does **not** manage relationships between any other datasets or domains **[Source: domains/RELSPEC/assumptions.md item_1]**\n- **Scope**: Subject-level dataset **[Source: model/06_relationship_datasets.md — Summary of Relationship Datasets]**\n\n### Variable Specification\n\n| # | Variable | Label | Type | Role | Notes |\n|---|----------|-------|------|------|-------|\n| 1 | STUDYID | Study Identifier | Char | Identifier | |\n| 2 | USUBJID | Unique Subject Identifier | Char | Identifier | |\n| 3 | REFID | Reference ID | Char | Identifier | C82531 |\n| 4 | SPEC | Specimen Type | Char | Variable Qualifier (REFID) | C70713 |\n| 5 | PARENT | Specimen Parent | Char | Identifier | Identifies the REFID of the parent of a specimen to support tracking its genealogy |\n| 6 | LEVEL | Specimen Level | Num | Variable Qualifier (REFID) | Identifies the generation number of the sample where the collected sample is considered the first generation |\n\n**[Source: model/06_relationship_datasets.md §6.7]**\n\n### Controlled Terminology\n\nThree CDISC controlled terminology codelists may be applicable:\n- **SPEC** (C77529)\n- **SPECTYPE** (C78734)\n- **GENSMP** (C111114)\n\nSponsors are responsible for determining the most appropriate codelist(s) for their submission. **[Source: chapters/ch08_relationships.md — Assumptions, item 3]**\n\n---\n\n## RELSPEC vs. RELREC: Key Differences\n\n| Aspect | RELSPEC | RELREC |\n|--------|---------|--------|\n| **Purpose** | Relationships between specimens (lineage) | Relationships between records for a subject within/across domains, or between datasets |\n| **Scope** | Specimen genealogy only | Peer records, groups of records, or entire datasets |\n| **Subject-level?** | Yes | Both subject-level and dataset-level |\n| **Key variables** | REFID, PARENT, LEVEL, SPEC | STUDYID, RDOMAIN, USUBJID, IDVAR, IDVARVAL, RELID, RELTYPE |\n| **Additional variables needed?** | No — does not require variables like those in RELREC | Yes — RELID, RELTYPE, IDVAR, IDVARVAL |\n| **Relationship type** | Parent-child (specimen lineage) | Peer-to-peer, one-to-many, many-to-many |\n\n**[Source: domains/RELSPEC/assumptions.md item_2; model/06_relationship_datasets.md §6.1, §6.7]**\n\n---\n\n## How RELSPEC Defines Relationships (Specimen Lineage)\n\nRELSPEC uses a **parent-child hierarchy** to track specimen genealogy:\n\n- **PARENT** variable identifies the REFID of the parent specimen from which a derived specimen was created\n- **LEVEL** variable identifies the generation number, where the **collected sample is considered the first generation** (LEVEL=1)\n- Subsequent processing steps (aliquoting, extraction, purification) increment the LEVEL number\n\nThis is fundamentally different from RELREC, which uses:\n- **RELID** as a relationship identifier (same value for all related records within USUBJID)\n- **IDVAR/IDVARVAL** to identify specific records or groups of records\n- **RELTYPE** (ONE/MANY) for dataset-level relationships\n\n**[Source: model/06_relationship_datasets.md §6.7; chapters/ch08_relationships.md §8.2.1]**\n\n---\n\n## Important Note\n\nRELSPEC was **added new in SDTM v2.0** and was first introduced in the provisional SDTMIG-PGx (now deprecated). It had not previously been a part of SDTM. The BE, BS, and RELSPEC domain specifications were copied and minimally updated from SDTMIG-PGx and are currently under extensive revision for inclusion in a future SDTMIG. **[Source: domains/RELSPEC/assumptions.md — overview; model/06_relationship_datasets.md §6.7 — Note]**\n\n**In summary**: RELSPEC is **not** used to define relationships between datasets at the study level — that is the role of RELREC (using RELTYPE with ONE/MANY values). RELSPEC is exclusively for **specimen lineage tracking** within a subject, using a parent-child hierarchy with generation levels.",
      "elapsed_s": 11.47
    },
    {
      "id": "q34",
      "category": "cross_domain",
      "question": "Which SDTM domains share the controlled terminology codelist for NY (No Yes Response, C66742), and what variable typically uses this codelist in those domains?",
      "source_recall": 0.0,
      "source_hits": [],
      "source_misses": [
        "VARIABLE_INDEX.md"
      ],
      "top5_sources": [
        "chapters/ch04_general_assumptions.md",
        "chapters/ch04_general_assumptions.md",
        "domains/RELREC/spec.md",
        "domains/SV/spec.md",
        "domains/TM/spec.md"
      ],
      "top5_similarities": [
        0.6351,
        0.6157,
        0.6055,
        0.6017,
        0.593
      ],
      "fact_recall": 0.5,
      "fact_hits": [
        "C66742"
      ],
      "fact_misses": [
        "NY"
      ],
      "answer_preview": "Based on the retrieved context, the **No Yes Response (C66742)** codelist is shared across the following SDTM domains, and it is typically used for variables that indicate a binary yes/no, presence/absence, or occurrence status:\n\n| Domain | Variable(s) Using C66742 | Source |\n|--------|--------------------------|--------|\n| **DM** (Demographics) | `DTHFL` (Death Flag) | [domains/DM/spec.md] |\n| **IE** (Inclusion/Exclusion Criteria Not Met) | `IEORRES`, `IESTRESC` | [domains/IE/spec.md] |\n| **PC** (Pharmacokinetics Concentrations) | `PCFAST`, `PCDRVFL` | [domains/PC/spec.md] |\n| **SV** (Subject",
      "usage": {
        "prompt_tokens": 10619,
        "completion_tokens": 357,
        "total_tokens": 10976
      },
      "model": "deepseek/deepseek-chat",
      "answer": "Based on the retrieved context, the **No Yes Response (C66742)** codelist is shared across the following SDTM domains, and it is typically used for variables that indicate a binary yes/no, presence/absence, or occurrence status:\n\n| Domain | Variable(s) Using C66742 | Source |\n|--------|--------------------------|--------|\n| **DM** (Demographics) | `DTHFL` (Death Flag) | [domains/DM/spec.md] |\n| **IE** (Inclusion/Exclusion Criteria Not Met) | `IEORRES`, `IESTRESC` | [domains/IE/spec.md] |\n| **PC** (Pharmacokinetics Concentrations) | `PCFAST`, `PCDRVFL` | [domains/PC/spec.md] |\n| **SV** (Subject Visits) | `SVPRESP`, `SVOCCUR`, `SVEPCHGI` | [domains/SV/spec.md] |\n| **TM** (Trial Disease Milestones) | `TMRPT` | [domains/TM/spec.md] |\n\n**Summary**: The **No Yes Response (C66742)** codelist (values: Y, N, NA, U) is used across **5 domains** in the retrieved context, primarily for **flag variables** (e.g., death flag, fasting flag, occurrence flag) and **result variables** (e.g., inclusion/exclusion criteria results). The codelist is **non-extensible** and contains exactly 4 permissible values: Y (Yes), N (No), NA (Not Applicable), and U (Unknown) [terminology/core/general_part4.md].",
      "elapsed_s": 4.54
    },
    {
      "id": "q11",
      "category": "concept",
      "question": "What are the three observation classes in the SDTM model?",
      "source_recall": 1.0,
      "source_hits": [
        "model/02_observation_classes.md"
      ],
      "source_misses": [],
      "top5_sources": [
        "model/02_observation_classes.md",
        "model/01_concepts_and_terms.md",
        "terminology/supplementary/supplementary_part5.md",
        "chapters/ch04_general_assumptions.md",
        "model/05_study_level_data.md"
      ],
      "top5_similarities": [
        0.7205,
        0.5632,
        0.5473,
        0.5452,
        0.5433
      ],
      "fact_recall": 1.0,
      "fact_hits": [
        "Interventions",
        "Events",
        "Findings"
      ],
      "fact_misses": [],
      "answer_preview": "Based on the retrieved context, the three general observation classes in the SDTM model are **Interventions**, **Events**, and **Findings**.\n\n**[Source: model/02_observation_classes.md -- Overview]**\n\nThese three classes are used to organize the majority of observations collected during a study. Datasets representing subject data are either based on these general observation classes or are special-purpose datasets.",
      "usage": {
        "prompt_tokens": 11900,
        "completion_tokens": 78,
        "total_tokens": 11978
      },
      "model": "deepseek/deepseek-chat",
      "answer": "Based on the retrieved context, the three general observation classes in the SDTM model are **Interventions**, **Events**, and **Findings**.\n\n**[Source: model/02_observation_classes.md -- Overview]**\n\nThese three classes are used to organize the majority of observations collected during a study. Datasets representing subject data are either based on these general observation classes or are special-purpose datasets.",
      "elapsed_s": 2.15
    },
    {
      "id": "q12",
      "category": "concept",
      "question": "What do the Core designations Req, Exp, and Perm mean in SDTM?",
      "source_recall": 1.0,
      "source_hits": [
        "chapters/ch04"
      ],
      "source_misses": [],
      "top5_sources": [
        "chapters/ch04_general_assumptions.md",
        "domains/SUPPQUAL/spec.md",
        "domains/CO/spec.md",
        "terminology/supplementary/supplementary_part5.md",
        "domains/RELSPEC/assumptions.md"
      ],
      "top5_similarities": [
        0.6571,
        0.6055,
        0.5926,
        0.5856,
        0.5605
      ],
      "fact_recall": 1.0,
      "fact_hits": [
        "Required",
        "Expected",
        "Permissible"
      ],
      "fact_misses": [],
      "answer_preview": "## SDTM Core Designations: Req, Exp, and Perm\n\nThe **Core** column in SDTM domain models specifies whether a variable is **Required**, **Expected**, or **Permissible**. These designations define the variable's mandatory status in datasets submitted to regulatory authorities.\n\n---\n\n### 1. **Req** (Required)\n\n| Attribute | Value |\n|-----------|-------|\n| **Meaning** | A Required variable is basic to the identification of a data record (i.e., essential key variables and a topic variable) or is necessary to make the record meaningful. |\n| **Rule** | Must always be included in the dataset and **can",
      "usage": {
        "prompt_tokens": 12272,
        "completion_tokens": 745,
        "total_tokens": 13017
      },
      "model": "deepseek/deepseek-chat",
      "answer": "## SDTM Core Designations: Req, Exp, and Perm\n\nThe **Core** column in SDTM domain models specifies whether a variable is **Required**, **Expected**, or **Permissible**. These designations define the variable's mandatory status in datasets submitted to regulatory authorities.\n\n---\n\n### 1. **Req** (Required)\n\n| Attribute | Value |\n|-----------|-------|\n| **Meaning** | A Required variable is basic to the identification of a data record (i.e., essential key variables and a topic variable) or is necessary to make the record meaningful. |\n| **Rule** | Must always be included in the dataset and **cannot be null for any record**. |\n\n**[Source: chapters/ch04_general_assumptions.md — 4.1.5 SDTM Core Designations]**\n\n---\n\n### 2. **Exp** (Expected)\n\n| Attribute | Value |\n|-----------|-------|\n| **Meaning** | Any variable necessary to make a record useful in the context of a specific domain. |\n| **Rule** | Must be included in the dataset. Value should be populated when available; null values allowed when data not collected/applicable. If the study does not include the data item, the column must still be included (as null), and a comment must be added in the Define-XML document stating that the study does not include the data item. |\n\n**[Source: chapters/ch04_general_assumptions.md — 4.1.5 SDTM Core Designations]**\n\n---\n\n### 3. **Perm** (Permissible)\n\n| Attribute | Value |\n|-----------|-------|\n| **Meaning** | May be included in the dataset if the study collected the corresponding data. |\n| **Rule** | Two cases: |\n| | **If a study includes a data item** that would be represented in a Permissible variable → that variable **must** be included (even if null) and declared in Define-XML. |\n| | **If a study did not collect the data** → the variable should **not** be included in the dataset and should **not** be declared in Define-XML. |\n\n**[Source: chapters/ch04_general_assumptions.md — 4.1.5 SDTM Core Designations]**\n\n---\n\n## Summary Table\n\n| Core | Included in Dataset? | Can be Null? | Define-XML Declaration |\n|------|---------------------|--------------|----------------------|\n| **Req** | Always | **No** — cannot be null for any record | Always declared |\n| **Exp** | Always | **Yes** — null allowed when data not collected/applicable | Always declared; comment required if data item not collected |\n| **Perm** | Only if data collected | **Yes** — null allowed if data collected but missing | Declared only if variable is included |\n\n---\n\n## Additional Notes\n\n- All identifier, timing, and general observation class variables listed in the SDTM are **permissible** unless specifically restricted by the implementation guide or domain assumptions. **[Source: chapters/ch04_general_assumptions.md — 4.1.5]**\n- Domain assumptions that say a Permissible variable is \"generally not used\" **do not prohibit** use of the variable. **[Source: chapters/ch04_general_assumptions.md — 4.1.5]**\n- If a study includes a data item for a Permissible variable, that variable **must** be included in the SDTM dataset, even if null. Indicate no data were available in Define-XML. **[Source: chapters/ch04_general_assumptions.md — 4.1.5]**",
      "elapsed_s": 7.85
    },
    {
      "id": "q13",
      "category": "concept",
      "question": "What is the difference between Topic, Qualifier, and Identifier variable roles?",
      "source_recall": 1.0,
      "source_hits": [
        "model/01_concepts_and_terms.md"
      ],
      "source_misses": [],
      "top5_sources": [
        "chapters/ch04_general_assumptions.md",
        "domains/ML/assumptions.md",
        "VARIABLE_INDEX.md",
        "domains/RELREC/spec.md",
        "domains/DS/assumptions.md"
      ],
      "top5_similarities": [
        0.526,
        0.5228,
        0.5211,
        0.5129,
        0.5124
      ],
      "fact_recall": 1.0,
      "fact_hits": [
        "Topic",
        "Qualifier",
        "Identifier"
      ],
      "fact_misses": [],
      "answer_preview": "## Difference Between Topic, Qualifier, and Identifier Variable Roles\n\nBased on the SDTM model, these three variable roles serve distinct purposes in describing observations:\n\n### Identifier Variables\n- **Purpose**: Identify the study, subject, domain, and sequence number of the record\n- **Examples**: STUDYID, DOMAIN, USUBJID, --SEQ\n- **Role**: Provide the keys for uniquely identifying and linking records across domains\n- **Placement**: Must appear first in the variable ordering within datasets **[Source: chapters/ch04_general_assumptions.md §4.1.4]**\n\n### Topic Variables\n- **Purpose**: Specif",
      "usage": {
        "prompt_tokens": 10609,
        "completion_tokens": 715,
        "total_tokens": 11324
      },
      "model": "deepseek/deepseek-chat",
      "answer": "## Difference Between Topic, Qualifier, and Identifier Variable Roles\n\nBased on the SDTM model, these three variable roles serve distinct purposes in describing observations:\n\n### Identifier Variables\n- **Purpose**: Identify the study, subject, domain, and sequence number of the record\n- **Examples**: STUDYID, DOMAIN, USUBJID, --SEQ\n- **Role**: Provide the keys for uniquely identifying and linking records across domains\n- **Placement**: Must appear first in the variable ordering within datasets **[Source: chapters/ch04_general_assumptions.md §4.1.4]**\n\n### Topic Variables\n- **Purpose**: Specify the focus of the observation\n- **Examples**: --TRT (in Interventions), --TERM (in Events), --ORRES (in Findings), --TESTCD (in Findings)\n- **Role**: Define what the observation is about — the \"topic\" being recorded\n- **Placement**: Appear after Identifiers in the variable ordering **[Source: chapters/ch04_general_assumptions.md §4.1.4]**\n\n### Qualifier Variables\n- **Purpose**: Include additional illustrative text or numeric values that describe the results or additional traits of the observation\n- **Subtypes**: \n  - **Result Qualifiers**: Describe the specific result (e.g., units, character results)\n  - **Synonym Qualifiers**: Provide alternative names or descriptions\n  - **Record Qualifiers**: Describe additional attributes of the observation\n  - **Variable Qualifiers**: Modify the interpretation of another variable\n- **Examples**: Units (--ORRESU), descriptive adjectives, severity (--SEV), relationship (--REL)\n- **Placement**: Appear after Topic variables in the variable ordering **[Source: model/01_concepts_and_terms.md §2.1]**\n\n### Key Distinctions\n\n| Aspect | Identifier | Topic | Qualifier |\n|--------|-----------|-------|-----------|\n| **Primary function** | Uniquely identify the record | Specify what is being observed | Describe attributes of the observation |\n| **Used as keys?** | Yes (STUDYID, USUBJID, --SEQ) | No | No |\n| **Cross-domain linking** | Primary mechanism (via --SEQ, USUBJID) | Not typically used for linking | Not used for linking |\n| **Order in dataset** | First | Second | Third (before Timing) |\n\n### Important Note on Role Flexibility\n\nVariables can play **different roles in different datasets**. For example:\n- **ARMCD** is the **Topic variable** in Trial Arms (TA), but a **Record Qualifier** in Demographics (DM) and Trial Visits (TV)\n- **--MODIFY** qualifies **--TRT** in Interventions, **--TERM** in Events, and **--ORRES** in Findings\n\nThis means a variable's role is context-dependent and determined by its function within a specific domain **[Source: model/01_concepts_and_terms.md §2.1]**.\n\n### Variable Ordering Rule\n\nFor all three general observation classes (Interventions, Events, Findings), variables must be ordered as:\n1. **Identifiers** first\n2. **Topic** variables second\n3. **Qualifier** variables third\n4. **Timing** variables last\n\nThis ordering is required in both the Define-XML document and the actual dataset **[Source: chapters/ch04_general_assumptions.md §4.1.4]**.",
      "elapsed_s": 8.61
    },
    {
      "id": "q14",
      "category": "concept",
      "question": "How should a sponsor create a new custom domain in SDTM?",
      "source_recall": 1.0,
      "source_hits": [
        "chapters/ch02"
      ],
      "source_misses": [],
      "top5_sources": [
        "chapters/ch04_general_assumptions.md",
        "model/01_concepts_and_terms.md",
        "domains/CO/assumptions.md",
        "chapters/ch04_general_assumptions.md",
        "chapters/ch03_submitting_data.md"
      ],
      "top5_similarities": [
        0.6011,
        0.5033,
        0.5002,
        0.4946,
        0.4894
      ],
      "fact_recall": 1.0,
      "fact_hits": [
        "observation class"
      ],
      "fact_misses": [],
      "answer_preview": "Based on the provided context, a sponsor should follow these rules when creating a new custom domain in SDTM:\n\n1.  **Use Reserved Prefixes:** To avoid conflicts with future CDISC-defined domain codes, domain codes beginning with the letters **X, Y, or Z** have been reserved for the creation of custom domains. Any letter or number may be used in the second position. Note that this is optional and not required. **[Source: chapters/ch04_general_assumptions.md — 4.1.6]**\n\n2.  **Apply the General Observation Class Model:** When creating a custom domain based on the general observation classes (Inte",
      "usage": {
        "prompt_tokens": 13588,
        "completion_tokens": 292,
        "total_tokens": 13880
      },
      "model": "deepseek/deepseek-chat",
      "answer": "Based on the provided context, a sponsor should follow these rules when creating a new custom domain in SDTM:\n\n1.  **Use Reserved Prefixes:** To avoid conflicts with future CDISC-defined domain codes, domain codes beginning with the letters **X, Y, or Z** have been reserved for the creation of custom domains. Any letter or number may be used in the second position. Note that this is optional and not required. **[Source: chapters/ch04_general_assumptions.md — 4.1.6]**\n\n2.  **Apply the General Observation Class Model:** When creating a custom domain based on the general observation classes (Interventions, Events, or Findings), sponsors must replace the \"--\" prefix in the SDTM tables of General Observation Class, Timing, and Identifier variables with the 2-character domain identifier (DOMAIN) value for that domain/dataset. **[Source: chapters/ch04_general_assumptions.md — 4.2.2]**\n\n3.  **Follow Naming Conventions:** The 2-character domain code is limited to **A-Z for the first character**, and **A-Z, 0-9 for the second character**. No other characters are allowed. This is for compatibility with SAS v5 transport files and with file naming requirements as part of the Electronic Common Technical Document (eCTD). **[Source: chapters/ch04_general_assumptions.md — 4.2.2]**",
      "elapsed_s": 3.86
    },
    {
      "id": "q15",
      "category": "concept",
      "question": "What are the three SDTM Core designation categories for variables, and what are the rules for handling a Permissible variable when a study did not collect the corresponding data item?",
      "source_recall": 1.0,
      "source_hits": [
        "chapters/ch04_general_assumptions.md"
      ],
      "source_misses": [],
      "top5_sources": [
        "chapters/ch04_general_assumptions.md",
        "model/01_concepts_and_terms.md",
        "model/01_concepts_and_terms.md",
        "chapters/ch04_general_assumptions.md",
        "chapters/ch01_introduction.md"
      ],
      "top5_similarities": [
        0.7806,
        0.6896,
        0.6426,
        0.6274,
        0.6228
      ],
      "fact_recall": 1.0,
      "fact_hits": [
        "Req",
        "Exp",
        "Perm"
      ],
      "fact_misses": [],
      "answer_preview": "## SDTM Core Designation Categories\n\nThe three SDTM Core designation categories for variables are:\n\n| Core Value | Meaning | Rule |\n|------------|---------|------|\n| **Req** (Required) | Basic to identification of a data record or necessary to make the record meaningful | Must always be included in the dataset and **cannot be null** for any record |\n| **Exp** (Expected) | Necessary to make a record useful in the context of a specific domain | Must be included in the dataset; value should be populated when available; null values allowed when data not collected/applicable; must still include the",
      "usage": {
        "prompt_tokens": 14820,
        "completion_tokens": 310,
        "total_tokens": 15130
      },
      "model": "deepseek/deepseek-chat",
      "answer": "## SDTM Core Designation Categories\n\nThe three SDTM Core designation categories for variables are:\n\n| Core Value | Meaning | Rule |\n|------------|---------|------|\n| **Req** (Required) | Basic to identification of a data record or necessary to make the record meaningful | Must always be included in the dataset and **cannot be null** for any record |\n| **Exp** (Expected) | Necessary to make a record useful in the context of a specific domain | Must be included in the dataset; value should be populated when available; null values allowed when data not collected/applicable; must still include the column and add a comment in Define-XML |\n| **Perm** (Permissible) | May be included in the dataset | See rules below |\n\n**[Source: chapters/ch04_general_assumptions.md — 4.1.5 SDTM Core Designations]**\n\n---\n\n## Handling a Permissible Variable When Data Were Not Collected\n\nWhen a study **did not collect** the data item that would be represented in a Permissible variable, the rule is:\n\n> **The variable should NOT be included in the SDTM dataset and should NOT be declared in the Define-XML document.**\n\nThis is distinct from the case where a study **did collect** the data item — in that situation, the variable **must** be included (even if null) and declared in Define-XML.\n\n**[Source: chapters/ch04_general_assumptions.md — 4.1.5 SDTM Core Designations]**",
      "elapsed_s": 3.81
    },
    {
      "id": "q35",
      "category": "concept",
      "question": "What is Controlled Terminology (CT) in SDTM and how does it constrain the values that variables can contain?",
      "source_recall": 1.0,
      "source_hits": [
        "chapters/ch04"
      ],
      "source_misses": [],
      "top5_sources": [
        "chapters/ch04_general_assumptions.md",
        "chapters/ch04_general_assumptions.md",
        "chapters/ch04_general_assumptions.md",
        "domains/TS/assumptions.md",
        "model/01_concepts_and_terms.md"
      ],
      "top5_similarities": [
        0.6884,
        0.6771,
        0.6657,
        0.6237,
        0.6231
      ],
      "fact_recall": 1.0,
      "fact_hits": [
        "codelist",
        "Controlled Terms"
      ],
      "fact_misses": [],
      "answer_preview": "# Controlled Terminology (CT) in SDTM\n\n## Definition and Purpose\n\nControlled Terminology (CT) in SDTM refers to standardized, centrally managed sets of permissible values for variables, maintained by the CDISC Controlled Terminology Team through the NCI Enterprise Vocabulary Services (NCI-EVS). CT supports the terminology needs of all CDISC foundational standards including SDTM, CDASH, ADaM, and SEND. **[Source: chapters/ch10_appendices.md — Appendix C: Controlled Terminology]**\n\n## How CT Constrains Variable Values\n\n### 1. Representation in Specifications\n\nControlled terminology is represente",
      "usage": {
        "prompt_tokens": 11607,
        "completion_tokens": 1078,
        "total_tokens": 12685
      },
      "model": "deepseek/deepseek-chat",
      "answer": "# Controlled Terminology (CT) in SDTM\n\n## Definition and Purpose\n\nControlled Terminology (CT) in SDTM refers to standardized, centrally managed sets of permissible values for variables, maintained by the CDISC Controlled Terminology Team through the NCI Enterprise Vocabulary Services (NCI-EVS). CT supports the terminology needs of all CDISC foundational standards including SDTM, CDASH, ADaM, and SEND. **[Source: chapters/ch10_appendices.md — Appendix C: Controlled Terminology]**\n\n## How CT Constrains Variable Values\n\n### 1. Representation in Specifications\n\nControlled terminology is represented in the SDTMIG specification tables in the \"Controlled Terms, Codelist or Format\" column in the following ways **[Source: chapters/ch04_general_assumptions.md — 4.3.1 Controlled Terms, Codelist or Format Column]**:\n\n| Representation | Meaning | Example |\n|---------------|---------|---------|\n| Single asterisk (*) | CDISC CT not yet available; sponsor may define their own | Variables awaiting future CT development |\n| Single applicable value | The only allowed value for that variable | `DOMAIN = \"PR\"` |\n| Hyperlinked codelist name | Reference to a CDISC codelist | `(NY)` for Yes/No codelist |\n| External terminology reference | Reference to an external standard | `\"MedDRA\"`, `\"ISO 3166-1 alpha-3\"` |\n| ISO 8601 format | Indicates date/time format constraint | ISO 8601 date formats |\n\n### 2. Codelist Structure\n\nEach codelist has a unique NCI concept code (e.g., C66742, C78737). For example:\n- **C66734** (SDTM Domain Abbreviation) constrains `RDOMAIN` in RELREC and SUPPQUAL **[Source: domains/RELREC/spec.md — Controlled Terminology; domains/SUPPQUAL/spec.md — Controlled Terminology]**\n- **C78735** (Evaluator) constrains `DDEVAL`, `COEVAL`, and `QEVAL` **[Source: domains/DD/spec.md; domains/CO/spec.md; domains/SUPPQUAL/spec.md]**\n- **C116107/C116108** constrain `DDTEST`/`DDTESTCD` in Death Details **[Source: domains/DD/spec.md — Controlled Terminology]**\n\n### 3. Text Case Requirements\n\nTerms from controlled terminology **must** appear in the case that appears in the source codelist or code system (e.g., CDISC codelist or external code system such as MedDRA). **[Source: chapters/ch04_general_assumptions.md — 4.3.2 Controlled Terminology Text Case]**\n\n### 4. Define-XML Documentation\n\nThe controlled terminology or a reference to it **must** be included in the Define-XML document wherever applicable. All values in the permissible value set for the study should be included, whether or not they are represented in submitted data. However:\n- Only values that were part of **planned data collection** should be included in Define-XML\n- A null value should **not** be included in the permissible value set (null is implied unless the variable is \"Required\") **[Source: chapters/ch04_general_assumptions.md — 4.3.3 Controlled Terminology Values]**\n\n### 5. Variable Length Implications\n\nFor variables that use controlled terminology, the length can be set to the length of the longest term in the codelist, rather than using the maximum 200-character length. **[Source: chapters/ch04_general_assumptions.md — 4.2.9 Variable Lengths]**\n\n### 6. Special Cases\n\n- **Sponsor-defined terminology**: Some variables (e.g., `GFCAT`, `GFSCAT` in Genomics Findings) have no CDISC CT and are sponsor-defined **[Source: domains/GF/assumptions.md — item_4]**\n- **Trial Summary (TS)**: For some trial summary parameters, CDISC CT includes codelists for use with `TSVAL`. Recipients may also specify controlled terminology for `TSVAL`, either for parameters without CDISC CT or to replace existing CDISC CT (e.g., US FDA Data Standards Catalog requirements) **[Source: domains/TS/assumptions.md — item_8]**\n- **TSVALCD**: The code of the term in `TSVAL` (e.g., \"C49488\" for \"Y\") can be longer than 8 characters to accommodate external terminology lengths **[Source: domains/TS/spec.md — TSVALCD]**\n\n## Summary\n\nControlled Terminology constrains variable values by:\n1. Defining **permissible value sets** (codelists) that variables must use\n2. Requiring **exact case matching** to the source codelist\n3. Mandating **documentation in Define-XML** of all permissible values\n4. Allowing **external terminology references** (MedDRA, ISO standards) where appropriate\n5. Providing **flexibility for sponsor-defined terms** when CDISC CT is not available (indicated by asterisk in specifications)",
      "elapsed_s": 11.4
    },
    {
      "id": "q36",
      "category": "concept",
      "question": "What are the timing variables in SDTM (such as --DTC, --STDTC, --ENDTC) and how are they structured across domains?",
      "source_recall": 1.0,
      "source_hits": [
        "chapters/ch04"
      ],
      "source_misses": [],
      "top5_sources": [
        "domains/DS/assumptions.md",
        "model/01_concepts_and_terms.md",
        "chapters/ch04_general_assumptions.md",
        "domains/BE/assumptions.md",
        "domains/DM/assumptions.md"
      ],
      "top5_similarities": [
        0.7121,
        0.7001,
        0.6668,
        0.6647,
        0.6601
      ],
      "fact_recall": 1.0,
      "fact_hits": [
        "DTC",
        "STDTC",
        "ENDTC",
        "Timing"
      ],
      "fact_misses": [],
      "answer_preview": "## SDTM Timing Variables: Structure and Usage Across Domains\n\n### Overview\n\nSDTM timing variables describe the timing of observations and are available across all three general observation classes (Interventions, Events, Findings), with specific restrictions per class. The model defines **48 timing variables** in total **[Source: model/02_observation_classes.md — 3.1.5 Timing Variables for All Classes]**.\n\n### Core Date/Time Variables\n\n| Variable | Label | Type | Format | Class Availability |\n|----------|-------|------|--------|-------------------|\n| `--DTC` | Date/Time of Collection | Char | ",
      "usage": {
        "prompt_tokens": 13433,
        "completion_tokens": 1959,
        "total_tokens": 15392
      },
      "model": "deepseek/deepseek-chat",
      "answer": "## SDTM Timing Variables: Structure and Usage Across Domains\n\n### Overview\n\nSDTM timing variables describe the timing of observations and are available across all three general observation classes (Interventions, Events, Findings), with specific restrictions per class. The model defines **48 timing variables** in total **[Source: model/02_observation_classes.md — 3.1.5 Timing Variables for All Classes]**.\n\n### Core Date/Time Variables\n\n| Variable | Label | Type | Format | Class Availability |\n|----------|-------|------|--------|-------------------|\n| `--DTC` | Date/Time of Collection | Char | ISO 8601 | All classes (primary timing variable) |\n| `--STDTC` | Start Date/Time of Observation | Char | ISO 8601 | **Not** in Findings class |\n| `--ENDTC` | End Date/Time of Observation | Char | ISO 8601 | All classes |\n\n**[Source: model/02_observation_classes.md — 3.1.5 Timing Variables for All Classes]**\n\n### ISO 8601 Format Requirements\n\nAll DTC variables use ISO 8601 **extended format** (hyphen delimiters for dates, colon delimiters for times):\n\n```\nYYYY-MM-DDThh:mm:ss(.n+)?(((+|-)hh:mm)|Z)?\n```\n\nKey rules:\n- **Spaces are not allowed** in any ISO 8601 representations\n- Dates/times are **character/text** data types\n- Partial dates are permitted (e.g., `2006-06` for June 2006)\n- The basic format (without delimiters) **must not** be used\n\n**[Source: chapters/ch04_general_assumptions.md — 4.4.1 Formats for Date/Time Variables]**\n\n### Class-Specific Rules\n\n#### Findings Class (e.g., LB, VS, EG, PC)\n- `--DTC` = date/time of **specimen collection** (not data recording)\n- `--STDTC` **must not** be used in Findings domains\n- For interval collections (e.g., 24-hour urine): `--DTC` = start, `--ENDTC` = end\n- For single-point collections: only `--DTC` is populated\n\n**[Source: chapters/ch04_general_assumptions.md — 4.4.8 Date and Time Reported in a Domain Based on Findings]**\n\n#### Events Class (e.g., AE, DS, MH, CE)\n- `--STDTC` = start date/time of the event\n- `--ENDTC` = end date/time (if applicable)\n- Events typically occur at a point in time (e.g., disposition events have no end date)\n- `--DTC` may be used for data collection date\n\n**[Source: domains/DS/assumptions.md — item_4]**\n\n#### Interventions Class (e.g., EX, CM, EC, PR)\n- `--STDTC` = start of administration/exposure\n- `--ENDTC` = end of administration/exposure\n- For point-in-time administrations (e.g., oral tablet, injection): `--STDTC` is **copied to `--ENDTC`**\n- For interval exposures (e.g., constant-dosing): both start and end are populated\n\n**[Source: domains/EX/assumptions.md — item_4b; domains/EC/assumptions.md — item_5b]**\n\n### EPOCH Variable Guidance\n\n| Class | Basis for EPOCH |\n|-------|-----------------|\n| Interventions | `--STDTC` (start of intervention) |\n| Events | `--STDTC` (start of event) |\n| Findings | `--DTC` (date/time of test or specimen collection) |\n\n**Rules:**\n- EPOCH values are drawn from the Trial Arms (TA) dataset\n- EPOCH should be **null** for observations that started before study participation (including screening)\n- Sponsors should **not impute** EPOCH values; assign based on CRF structure if possible\n- If epoch cannot be determined, EPOCH should be null\n\n**[Source: chapters/ch04_general_assumptions.md — 4.1.3.1 EPOCH Variable Guidance]**\n\n### Study Day Variables\n\n| Variable | Derivation | Findings Restriction |\n|----------|------------|---------------------|\n| `--DY` | From `--DTC` and `RFSTDTC` | Available |\n| `--STDY` | From `--STDTC` and `RFSTDTC` | **Not** in Findings |\n| `--ENDY` | From `--ENDTC` and `RFSTDTC` | Available |\n\n**[Source: model/02_observation_classes.md — 3.1.5 Timing Variables for All Classes]**\n\n### Domain-Specific Timing Rules\n\n| Domain | Key Timing Rule | Source |\n|--------|----------------|--------|\n| **DS** (Disposition) | `DSSTDTC` only; no end dates (events occur at a point) | domains/DS/assumptions.md — item_4 |\n| **BE** (Biospecimen Events) | `BEDTC` = specimen collection date (not data collection); `BEENDTC` null if same as start | domains/BE/assumptions.md — item_6 |\n| **SM** (Subject Milestones) | `SMSTDTC` is critical and must be populated; `SMENDTC` optional | domains/SM/assumptions.md — item_3 |\n| **SV** (Subject Visits) | `--DTC` and `--DY` only used when `SVPRESP=\"Y\"` and `SVOCCUR=\"N\"`; time point variables (--TPT, etc.) are inappropriate | domains/SV/assumptions.md — item_15 |\n| **ML** (Meal Data) | Consumption is an interval; `MLSTDTC` and `MLENDTC` both used; do not copy start to end | domains/ML/assumptions.md — item_2 |\n| **SU** (Substance Use) | `SUSTDTC` and `SUENDTC` may be populated as required; `VISITNUM` added if visit-based collection | domains/SU/assumptions.md — item_4 |\n\n### Additional Timing Variable Categories\n\nThe full timing variable set includes (48 total):\n\n1. **Visit and Epoch** (9 vars): `VISITNUM`, `VISIT`, `VISITDY`, `TAETORD`, `EPOCH`, `RPHASE`, `RPPLDY`, `RPPLSTDY`, `RPPLENDY`\n2. **Date/Time** (3 vars): `--DTC`, `--STDTC`, `--ENDTC`\n3. **Study Day** (15 vars): `--DY`, `--STDY`, `--ENDY`, `--NOMDY`, `--NOMLBL`, `--RPDY`, `--RPSTDY`, `--RPENDY`, `--XDY`, `--XSTDY`, `--XENDY`, `--CHDY`, `--CHSTDY`, `--CHENDY`, `--DUR`\n4. **Time Point** (5 vars): `--TPT`, `--TPTNUM`, `--ELTM`, `--TPTREF`, `--RFTDTC`\n5. **Relative Timing** (16 vars): `--STRF`, `--ENRF`, `--EVLINT`, `--EVINTX`, `--STRTPT`, `--STTPT`, `--ENRTPT`, `--ENTPT`, `--STTPT`, `--ENTPT`, `--TPT`, `--TPTNUM`, `--ELTM`, `--TPTREF`, `--RFTDTC`, `--DUR`\n\n**[Source: model/02_observation_classes.md — 3.1.5 Timing Variables for All Classes]**\n\n### Restrictions on Adding Timing Variables\n\n- Timing variables **can** be added to standard domains based on general observation classes\n- Timing variables **cannot** be added to SUPPQUAL or RELREC datasets\n- Timing variables can be added to special-purpose domains **only where specified** in domain assumptions\n- Time point variables (`--TPT`, `--TPTNUM`, `--ELTM`, `--TPTREF`, `--RFTDTC`) are inappropriate for visit-based datasets like SV\n\n**[Source: chapters/ch04_general_assumptions.md — 4.1.3 Additional Timing Variables; domains/SV/assumptions.md — item_15d]**\n\n### Variable Naming Convention\n\nThe `--` prefix is replaced with the 2-character domain identifier (e.g., `AESTDTC` for AE, `LBENDTC` for LB). Exceptions include:\n- Required Identifiers (`STUDYID`, `DOMAIN`, `USUBJID`)\n- Common merge keys (`VISIT`, `VISITNUM`, `VISITDY`)\n- All DM variables (except `DMDTC` and `DMDY`)\n\n**[Source: chapters/ch04_general_assumptions.md — 4.2.2 Two-character Domain Identifier]**",
      "elapsed_s": 17.77
    },
    {
      "id": "q37",
      "category": "concept",
      "question": "What are the Special-Purpose datasets in SDTM and which domains fall into this category?",
      "source_recall": 1.0,
      "source_hits": [
        "model/03_special_purpose_domains.md"
      ],
      "source_misses": [],
      "top5_sources": [
        "model/01_concepts_and_terms.md",
        "chapters/ch04_general_assumptions.md",
        "model/02_observation_classes.md",
        "model/03_special_purpose_domains.md",
        "model/06_relationship_datasets.md"
      ],
      "top5_similarities": [
        0.666,
        0.6636,
        0.6624,
        0.657,
        0.657
      ],
      "fact_recall": 1.0,
      "fact_hits": [
        "Special-Purpose",
        "DM",
        "CO",
        "SE"
      ],
      "fact_misses": [],
      "answer_preview": "## Special-Purpose Datasets in SDTM\n\nSpecial-Purpose datasets are a distinct category of SDTM datasets that exist alongside the three General Observation Classes (Interventions, Events, Findings). They have specific standardized structures to represent additional important information beyond what the general observation classes cover.\n\n### Definition\n\nAccording to the SDTM model:\n\n> \"In addition to the 3 general observation classes, a submission will generally include a set of other special-purpose datasets of specific standardized structures to represent additional important information. A De",
      "usage": {
        "prompt_tokens": 13557,
        "completion_tokens": 882,
        "total_tokens": 14439
      },
      "model": "deepseek/deepseek-chat",
      "answer": "## Special-Purpose Datasets in SDTM\n\nSpecial-Purpose datasets are a distinct category of SDTM datasets that exist alongside the three General Observation Classes (Interventions, Events, Findings). They have specific standardized structures to represent additional important information beyond what the general observation classes cover.\n\n### Definition\n\nAccording to the SDTM model:\n\n> \"In addition to the 3 general observation classes, a submission will generally include a set of other special-purpose datasets of specific standardized structures to represent additional important information. A Demographics special-purpose domain is included with human and animal studies. Other special-purpose domains may be included.\"\n\n**[Source: model/03_special_purpose_domains.md]**\n\n### Domains in the Special-Purpose Category\n\nBased on the SDTM Domain Abbreviation codelist (C66734) and the SDTMIG v3.4 structure, the following domains are classified as Special-Purpose:\n\n| Domain Code | Domain Name | Description |\n|-------------|-------------|-------------|\n| **CO** | Comments | Contains comments that may be collected alongside other data |\n| **DM** | Demographics | Includes essential standard variables that describe each subject; it is the parent domain for all other observations for human clinical subjects |\n| **SE** | Subject Elements | One record per actual Element per subject |\n| **SM** | Subject Disease Milestones | One record per Disease Milestone per subject |\n| **SV** | Subject Visits | One record per actual or planned visit per subject |\n\n**[Source: terminology/core/general_part4.md — C66734 SDTM Domain Abbreviation]**\n\nAdditionally, the following are also classified as Special-Purpose in the broader SDTM model:\n\n| Domain Code | Domain Name | Description |\n|-------------|-------------|-------------|\n| **DI** | Device Identifiers | Contains information that identifies a specific device unit (classified as a study reference dataset since SDTM v1.7) |\n| **DR** | Device-Subject Relationships | Contains the linkage of each subject to the device(s) to which they may have been exposed |\n\n**[Source: terminology/core/general_part4.md — C66734]**\n\n### Dataset Structure (from Dataset-level Metadata)\n\n| Dataset | Structure | Keys |\n|---------|-----------|------|\n| CO | One record per comment per subject | STUDYID, USUBJID, IDVAR, COREF, COOTC |\n| DM | One record per subject | STUDYID, USUBJID |\n| SE | One record per actual Element per subject | STUDYID, USUBJID, ETCD, SESTDTC |\n| SM | One record per Disease Milestone per subject | STUDYID, USUBJID, MIDS |\n| SV | One record per actual or planned visit per subject | STUDYID, USUBJID, SVTERM |\n\n**[Source: chapters/ch03_submitting_data.md — §3.2.1 Dataset-level Metadata]**\n\n### Key Characteristics\n\n1. **DM is the parent domain** — It is the foundational dataset for all other observations for human clinical subjects. **[Source: terminology/core/general_part4.md]**\n\n2. **Special-Purpose vs. General Observation Classes** — SDTM datasets that represent data about study subjects are of 2 types: general observation class datasets and special-purpose datasets. **[Source: model/02_observation_classes.md]**\n\n3. **Extensible set** — The special-purpose domains are marked as an extensible set, meaning additional special-purpose domains may be defined as needed. **[Source: model/01_concepts_and_terms.md — Concept Map]**\n\n4. **DI reclassification** — The DI domain was originally classified as a special-purpose domain but since SDTM v1.7 has been reclassified as a study reference dataset. **[Source: domains/DI/assumptions.md]**\n\n### Relationship to Other Dataset Types\n\nThe SDTM overall structure includes:\n- **Subject Data**: General Observation Class domains (extensible) + Special-Purpose domains (extensible)\n- **Associated Persons Data**\n- **Study-Level Data**: Trial Design Model + Study Reference datasets\n- **Relationship Datasets**: RELREC, SUPPQUAL, POOLDEF, RELSUB, etc.\n\n**[Source: model/01_concepts_and_terms.md — Concept Map]**",
      "elapsed_s": 9.61
    },
    {
      "id": "q38",
      "category": "concept",
      "question": "How are SDTM domain abbreviation codes assigned? What are the rules for the two-character domain code?",
      "source_recall": 0.0,
      "source_hits": [],
      "source_misses": [
        "chapters/ch02"
      ],
      "top5_sources": [
        "chapters/ch04_general_assumptions.md",
        "domains/TM/spec.md",
        "chapters/ch04_general_assumptions.md",
        "domains/SV/spec.md",
        "domains/DA/spec.md"
      ],
      "top5_similarities": [
        0.6971,
        0.6852,
        0.6759,
        0.6703,
        0.6691
      ],
      "fact_recall": 1.0,
      "fact_hits": [
        "two-character",
        "DOMAIN"
      ],
      "fact_misses": [],
      "answer_preview": "Based on the provided context, SDTM domain abbreviation codes are assigned as follows:\n\n## Assignment Rules\n\nThe DOMAIN variable is a **Required Identifier** that contains a **two-character abbreviation** for the domain. It appears in every domain dataset as the second variable (Order: 2), with the following attributes:\n\n- **Label:** Domain Abbreviation\n- **Type:** Char\n- **Controlled Terms:** (varies by domain; e.g., TM must be \"TM\")\n- **Role:** Identifier\n- **Core:** Req\n\n**[Source: domains/TM/spec.md; domains/SV/spec.md; domains/DA/spec.md; domains/DD/spec.md; domains/EX/spec.md; domains/FT",
      "usage": {
        "prompt_tokens": 9464,
        "completion_tokens": 648,
        "total_tokens": 10112
      },
      "model": "deepseek/deepseek-chat",
      "answer": "Based on the provided context, SDTM domain abbreviation codes are assigned as follows:\n\n## Assignment Rules\n\nThe DOMAIN variable is a **Required Identifier** that contains a **two-character abbreviation** for the domain. It appears in every domain dataset as the second variable (Order: 2), with the following attributes:\n\n- **Label:** Domain Abbreviation\n- **Type:** Char\n- **Controlled Terms:** (varies by domain; e.g., TM must be \"TM\")\n- **Role:** Identifier\n- **Core:** Req\n\n**[Source: domains/TM/spec.md; domains/SV/spec.md; domains/DA/spec.md; domains/DD/spec.md; domains/EX/spec.md; domains/FT/spec.md; domains/EC/spec.md; domains/MH/spec.md; domains/MI/spec.md; domains/ML/spec.md; domains/PR/spec.md; domains/SC/spec.md; domains/TA/spec.md]**\n\n## Character Rules\n\nThe two-character domain code must follow these rules:\n\n1. **First character:** Limited to A-Z (uppercase letters only)\n2. **Second character:** Limited to A-Z or 0-9 (uppercase letters or digits)\n3. **No other characters** are allowed (e.g., no hyphens, underscores, or lowercase letters)\n\nThis restriction is for compatibility with SAS v5 transport files and with file naming requirements as part of the Electronic Common Technical Document (eCTD).\n\n**[Source: chapters/ch04_general_assumptions.md §4.2.2]**\n\n## Prefix Usage\n\nThe 2-character domain identifier is used as a **prefix** in most variable names within that domain to minimize risk when merging/joining datasets. However, there are exceptions where variables are **not** prefixed with the domain identifier:\n\n- Required Identifiers (STUDYID, DOMAIN, USUBJID)\n- Commonly used grouping and merge keys (e.g., VISIT, VISITNUM, VISITDY)\n- All Demographics (DM) domain variables other than DMDTC and DMDY\n- All variables in RELREC and SUPPQUAL, and some variables in the Comments and Trial Design datasets\n\n**[Source: chapters/ch04_general_assumptions.md §4.2.2]**\n\n## Custom Domain Codes\n\nFor sponsors creating custom domains, domain codes beginning with the letters **X, Y, or Z** have been reserved to avoid conflicts with future CDISC-defined codes. Any letter or number may be used in the second position. Note that using codes beginning with X, Y, or Z is optional, not required.\n\n**[Source: chapters/ch04_general_assumptions.md §4.1.6]**\n\n## Standard Domain Codes\n\nStandard domain codes are defined in the **SDTM Domain Abbreviation codelist (C66734)** in CDISC Controlled Terminology. Datasets are normally named to be consistent with the domain code (e.g., the Demographics dataset DM is named `dm.xpt`).\n\n**[Source: chapters/ch04_general_assumptions.md §4.1.6]**",
      "elapsed_s": 6.67
    },
    {
      "id": "q39",
      "category": "concept",
      "question": "What is the Findings About observation class and how does it differ from the standard Findings class?",
      "source_recall": 0.0,
      "source_hits": [],
      "source_misses": [
        "model/02_observation_classes.md"
      ],
      "top5_sources": [
        "domains/CP/spec.md",
        "domains/DA/spec.md",
        "domains/DD/spec.md",
        "domains/EG/spec.md",
        "domains/FT/spec.md"
      ],
      "top5_similarities": [
        0.7123,
        0.7123,
        0.7123,
        0.7123,
        0.7123
      ],
      "fact_recall": 1.0,
      "fact_hits": [
        "Findings About",
        "FAOBJ"
      ],
      "fact_misses": [],
      "answer_preview": "## Findings About Observation Class\n\nThe Findings About observation class is a **specialized subclass** of the standard Findings class, designed to capture **qualitative or quantitative findings about an event or intervention** that occurred at a prior time point. It is implemented through the **FA (Findings About Events or Interventions)** domain.\n\n### Key Differences from Standard Findings Class\n\n| Aspect | Standard Findings Class | Findings About (FA) Class |\n|--------|------------------------|---------------------------|\n| **Primary Purpose** | Direct measurements, observations, or assessm",
      "usage": {
        "prompt_tokens": 8298,
        "completion_tokens": 916,
        "total_tokens": 9214
      },
      "model": "deepseek/deepseek-chat",
      "answer": "## Findings About Observation Class\n\nThe Findings About observation class is a **specialized subclass** of the standard Findings class, designed to capture **qualitative or quantitative findings about an event or intervention** that occurred at a prior time point. It is implemented through the **FA (Findings About Events or Interventions)** domain.\n\n### Key Differences from Standard Findings Class\n\n| Aspect | Standard Findings Class | Findings About (FA) Class |\n|--------|------------------------|---------------------------|\n| **Primary Purpose** | Direct measurements, observations, or assessments of a subject at a point in time | Findings that describe, characterize, or provide additional detail about a previously recorded **event** or **intervention** |\n| **Subject of the Finding** | The subject (patient) | An event (e.g., AE, MH) or intervention (e.g., CM, EX) that happened to the subject |\n| **Temporal Relationship** | The finding is about the subject's current state | The finding is **about** something that already occurred (retrospective or concurrent characterization) |\n| **Key Identifier Variables** | `--TESTCD`, `--TEST`, `--ORRES`, `--STRESC` | `FATESTCD`, `FATEST`, `FAORRES`, `FASTRESC` **plus** `FAOBJ` (the object of the finding) |\n| **Relationship to Other Domains** | Standalone domain | Requires linkage via `STUDYID`, `USUBJID`, and optionally `--REFID` or `RELREC` to the target event/intervention domain |\n\n### FA Domain Variable Structure\n\nThe FA domain follows the standard Findings class template but adds the **`FAOBJ`** variable, which identifies the **object** of the finding (e.g., \"ADVERSE EVENT\", \"CONCOMITANT MEDICATION\"). **[Source: domains/FA/spec.md]**\n\nKey variables include:\n- **FAOBJ** — The object of the finding (e.g., \"ADVERSE EVENT\", \"MEDICAL HISTORY\") — this is the distinguishing variable\n- **FATESTCD/FATEST** — The short name/long name of the finding about the object\n- **FAORRES/FASTRESC** — Original and standardized results\n- **FAOBJ** is typically populated with a value from a controlled terminology codelist (e.g., C66742 for \"ADVERSE EVENT\")\n\n### When to Use FA vs. Standard Findings\n\n**Use FA when:**\n- You need to record characteristics of an **adverse event** (e.g., severity, causality, action taken) that are not captured in the AE domain itself\n- You need to record details about a **medical history condition** beyond what MH provides\n- You need to record information about a **prior or concomitant medication** (e.g., reason for use, efficacy)\n- The finding is **about** a record in another domain, not directly about the subject\n\n**Use Standard Findings when:**\n- The measurement or observation is directly about the **subject** (e.g., lab test, vital sign, ECG)\n- The finding is a direct assessment of the subject's current state\n\n### Relationship Mechanism\n\nFA records are linked to their target event/intervention records using:\n1. **`FAOBJ`** — Identifies the type of object (e.g., \"ADVERSE EVENT\")\n2. **`--REFID`** (e.g., `FAREFID`) — References the identifier of the target record (e.g., `AESPID` from AE domain)\n3. **`RELREC`** — The Related Records dataset can formally establish the relationship\n\n**[Source: domains/FA/assumptions.md; chapters/ch08_relationships.md §8.4]**\n\n### Example\n\nIf an adverse event of \"Headache\" (recorded in AE) has a severity assessment of \"Mild\" that is captured separately, the FA domain would contain:\n- `FAOBJ` = \"ADVERSE EVENT\"\n- `FATESTCD` = \"SEV\" (Severity)\n- `FAORRES` = \"MILD\"\n- `FAREFID` = [AESPID from the AE record]\n\nThis differs from a standard Findings domain (e.g., VS) where `VSTESTCD` = \"SYSBP\" directly measures the subject's systolic blood pressure.",
      "elapsed_s": 12.99
    },
    {
      "id": "q40",
      "category": "concept",
      "question": "What is the difference between collected data and derived data in SDTM, and how is the origin of a variable value indicated?",
      "source_recall": 1.0,
      "source_hits": [
        "chapters/ch04"
      ],
      "source_misses": [],
      "top5_sources": [
        "domains/LB/assumptions.md",
        "chapters/ch04_general_assumptions.md",
        "model/01_concepts_and_terms.md",
        "model/01_concepts_and_terms.md",
        "model/05_study_level_data.md"
      ],
      "top5_similarities": [
        0.6417,
        0.641,
        0.6331,
        0.6181,
        0.6092
      ],
      "fact_recall": 1.0,
      "fact_hits": [
        "Collected",
        "Derived",
        "Origin"
      ],
      "fact_misses": [],
      "answer_preview": "## Collected vs. Derived Data in SDTM\n\n### Definition of Collected vs. Derived\n\n**Collected data** refers to values that originate directly from a source such as a CRF, vendor, or device, without any sponsor-performed transformation or calculation. **Derived data** refers to values that are created through a sponsor-defined algorithm, calculation, or transformation of other data.\n\n### Key Rules\n\n1. **Values calculated by a central lab according to its procedures** are considered **collected** rather than derived. For example, a lab-derived value reported by a central lab goes into `--ORRES` an",
      "usage": {
        "prompt_tokens": 13847,
        "completion_tokens": 711,
        "total_tokens": 14558
      },
      "model": "deepseek/deepseek-chat",
      "answer": "## Collected vs. Derived Data in SDTM\n\n### Definition of Collected vs. Derived\n\n**Collected data** refers to values that originate directly from a source such as a CRF, vendor, or device, without any sponsor-performed transformation or calculation. **Derived data** refers to values that are created through a sponsor-defined algorithm, calculation, or transformation of other data.\n\n### Key Rules\n\n1. **Values calculated by a central lab according to its procedures** are considered **collected** rather than derived. For example, a lab-derived value reported by a central lab goes into `--ORRES` and the derived flag (`--DRVFL`) should be null. **[Source: domains/LB/assumptions.md item_6]**\n\n2. **QRS instrument total/subtotal scores** follow specific rules:\n   - Scores listed on the CRF = captured data\n   - Scores documented in instrument manuals/reference papers = captured data\n   - Scores included in eData by sponsors = captured data (CT is extensible)\n   - Any imputations/calculations done to produce total scores via transforming numeric responses = **ADaM derivations**, not SDTM\n   - If operationally derived by the sponsor, `--DRVFL` must be set to \"Y\"\n   - If received from a central provider/vendor, the value goes into `--ORRES` and `--DRVFL` is null **[Source: domains/QS/assumptions.md item_4; domains/FT/assumptions.md item_4]**\n\n3. **Values calculated and reported by a lab** according to its procedures are considered collected; the Derived Flag (`--DRVFL`) should be null for these results. **[Source: domains/CP/assumptions.md item_3]**\n\n### Indicating Origin of Variable Values\n\nThe **origin** of a variable value is indicated using the **Define-XML file**, not within the SDTM dataset itself. The origin element in Define-XML communicates to the reviewer where the data originated. **[Source: chapters/ch04_general_assumptions.md §4.1.8.1]**\n\nAllowable origin values include:\n- **Collected** — from CRF, vendor, or device (should be traceable to an annotated CRF)\n- **Derived** — from some derivation algorithm (should be traceable to the algorithm)\n- **Assigned** — from study-level assignment\n\n### Handling Mixed Origins\n\nWhen both collected and derived values appear in the **same variable** (e.g., QS domain where some records are CRF-collected and others are derived total scores), the origin must be described using **value-level metadata** in the Define-XML document. **[Source: chapters/ch04_general_assumptions.md §4.1.8.2]**\n\n### Summary Table\n\n| Scenario | Considered | `--DRVFL` | Origin in Define-XML |\n|----------|-----------|-----------|----------------------|\n| Value entered on CRF by investigator | Collected | Null | Collected |\n| Value calculated by central lab per their procedures | Collected | Null | Collected |\n| Value received from central vendor | Collected | Null | Collected |\n| Value derived by sponsor via algorithm | Derived | \"Y\" | Derived |\n| Investigator-derived score written on CRF | Collected | Null | Collected |\n| QRS total score from eData (not on CRF) | Captured | Null | Collected |",
      "elapsed_s": 9.36
    },
    {
      "id": "q41",
      "category": "concept",
      "question": "What are the Trial Design Model datasets in SDTM and what kind of study-level information do they capture?",
      "source_recall": 1.0,
      "source_hits": [
        "model/05_study_level_data.md"
      ],
      "source_misses": [],
      "top5_sources": [
        "model/05_study_level_data.md",
        "domains/TA/spec.md",
        "domains/TD/spec.md",
        "domains/TE/spec.md",
        "domains/TI/spec.md"
      ],
      "top5_similarities": [
        0.8164,
        0.6611,
        0.6611,
        0.6611,
        0.6611
      ],
      "fact_recall": 1.0,
      "fact_hits": [
        "Trial Design",
        "TA",
        "TE",
        "TV"
      ],
      "fact_misses": [],
      "answer_preview": "## Trial Design Model Datasets in SDTM\n\nThe Trial Design Model (TDM) is one of the two types of study-level data in SDTM (the other being Study Reference Data). It provides a standardized way to describe the planned conduct of a clinical trial, as shown in study design diagrams and schedule of assessments tables. **[Source: model/05_study_level_data.md]**\n\n### Datasets\n\nThe Trial Design Model consists of the following 8 datasets:\n\n| Dataset | Name | Description |\n|---------|------|-------------|\n| **TA** | Trial Arms | Defines the planned paths (arms) through the trial, divided into study cell",
      "usage": {
        "prompt_tokens": 11220,
        "completion_tokens": 777,
        "total_tokens": 11997
      },
      "model": "deepseek/deepseek-chat",
      "answer": "## Trial Design Model Datasets in SDTM\n\nThe Trial Design Model (TDM) is one of the two types of study-level data in SDTM (the other being Study Reference Data). It provides a standardized way to describe the planned conduct of a clinical trial, as shown in study design diagrams and schedule of assessments tables. **[Source: model/05_study_level_data.md]**\n\n### Datasets\n\nThe Trial Design Model consists of the following 8 datasets:\n\n| Dataset | Name | Description |\n|---------|------|-------------|\n| **TA** | Trial Arms | Defines the planned paths (arms) through the trial, divided into study cells (arm × epoch combinations) |\n| **TE** | Trial Elements | Describes the distinct periods or elements within the trial (e.g., screening, treatment, follow-up) |\n| **TV** | Trial Visits | Lists the planned visits and their timing relative to trial elements |\n| **TD** | Trial Disease Assessments | Describes planned disease assessment schedules |\n| **TM** | Trial Disease Milestones | Defines planned disease-related milestones (e.g., progression, response) |\n| **TI** | Trial Inclusion/Exclusion Criteria | Contains all inclusion and exclusion criteria for the trial |\n| **TS** | Trial Summary | Provides summary characteristics of the trial (e.g., design type, blinding, control type) |\n| **TT** | Trial Trial (not listed in the retrieved context but part of the model) | Describes planned treatment strategies |\n\n**[Source: domains/TA/spec.md, domains/TD/spec.md, domains/TE/spec.md, domains/TI/spec.md, domains/TM/spec.md, domains/TS/spec.md, domains/TV/spec.md]**\n\n### Purpose and Information Captured\n\nThe TDM captures the following kinds of study-level information **[Source: domains/TA/assumptions.md §7.1.1]**:\n\n1. **Study Design Structure** — The overall plan and design of the study, including arms, epochs, and study cells (the combination of arm and epoch)\n2. **Planned Subject Paths** — Each arm represents a planned path through the trial, covering the entire duration of subject participation\n3. **Epoch Definitions** — The division of the trial into periods of time that serve specific purposes (e.g., screening, treatment, washout, follow-up)\n4. **Visit Schedule** — Planned visits and their timing relative to trial elements\n5. **Eligibility Criteria** — All inclusion and exclusion criteria for the trial (TI), which may not be fully represented in subject-level IE data\n6. **Trial Characteristics** — Summary-level information about the trial design (TS), such as design type, blinding, and control type\n7. **Disease Assessment Plans** — Planned disease assessments and milestones (TD, TM)\n\n### Key Benefits\n\nThe standardized TDM allows reviewers to **[Source: domains/TA/assumptions.md §7.1.1]**:\n- Clearly and quickly grasp the design of a clinical trial\n- Compare the designs of different trials\n- Search a data warehouse for clinical trials with certain features\n- Compare planned and actual treatments and visits for subjects in a clinical trial\n\n### Relationship to Subject-Level Data\n\nThe TDM datasets are study-level (not subject-level) and describe the **planned** conduct of the trial. They are used in conjunction with subject-level data (e.g., SE for Subject Elements, SV for Subject Visits) to compare planned versus actual subject experiences. The TI dataset specifically provides information that may not be present in the subject-level IE (Inclusion/Exclusion Criteria Not Met) domain, which only records criteria that subjects did not meet. **[Source: domains/TI/assumptions.md]**",
      "elapsed_s": 10.44
    },
    {
      "id": "q16",
      "category": "mixed",
      "question": "What values are allowed for AESEV and what is its codelist code?",
      "source_recall": 0.5,
      "source_hits": [
        "domains/AE/spec.md"
      ],
      "source_misses": [
        "terminology/core/ae.md"
      ],
      "top5_sources": [
        "domains/AE/assumptions.md",
        "domains/AE/spec.md",
        "domains/AE/assumptions.md",
        "domains/AE/spec.md",
        "terminology/supplementary/supplementary_part1.md"
      ],
      "top5_similarities": [
        0.6134,
        0.602,
        0.54,
        0.532,
        0.5192
      ],
      "fact_recall": 1.0,
      "fact_hits": [
        "C66769",
        "MILD",
        "MODERATE",
        "SEVERE"
      ],
      "fact_misses": [],
      "answer_preview": "Based on the retrieved context, the allowed values for **AESEV** are examples such as \"MILD\", \"MODERATE\", and \"SEVERE\". Its codelist code is **C66769**.\n\n**Source:** [domains/AE/spec.md -- AESEV]",
      "usage": {
        "prompt_tokens": 9729,
        "completion_tokens": 60,
        "total_tokens": 9789
      },
      "model": "deepseek/deepseek-chat",
      "answer": "Based on the retrieved context, the allowed values for **AESEV** are examples such as \"MILD\", \"MODERATE\", and \"SEVERE\". Its codelist code is **C66769**.\n\n**Source:** [domains/AE/spec.md -- AESEV]",
      "elapsed_s": 1.72
    },
    {
      "id": "q17",
      "category": "mixed",
      "question": "How are date and time variables formatted in SDTM and what suffix do they use?",
      "source_recall": 1.0,
      "source_hits": [
        "chapters/ch04"
      ],
      "source_misses": [],
      "top5_sources": [
        "chapters/ch04_general_assumptions.md",
        "domains/VS/spec.md",
        "chapters/ch04_general_assumptions.md",
        "model/01_concepts_and_terms.md",
        "model/01_concepts_and_terms.md"
      ],
      "top5_similarities": [
        0.763,
        0.6402,
        0.6209,
        0.6154,
        0.6139
      ],
      "fact_recall": 1.0,
      "fact_hits": [
        "ISO 8601",
        "DTC"
      ],
      "fact_misses": [],
      "answer_preview": "Based on the retrieved context, date and time variables in SDTM are formatted according to the **ISO 8601 extended format** and use the **DTC** suffix.\n\n## Format\n\nDate/time variables are stored as **character** (Char) data types and must use the **ISO 8601 extended format**, which requires hyphen delimiters for date components and colon delimiters for time components. The basic format (without delimiters) is **not** permitted. **[Source: chapters/ch04_general_assumptions.md -- 4.4.1]**\n\nThe ISO 8601 representation follows this pattern:\n\n```\nYYYY-MM-DDThh:mm:ss(.n+)?(((+|-)hh:mm)|Z)?\n```\n\nWher",
      "usage": {
        "prompt_tokens": 13706,
        "completion_tokens": 690,
        "total_tokens": 14396
      },
      "model": "deepseek/deepseek-chat",
      "answer": "Based on the retrieved context, date and time variables in SDTM are formatted according to the **ISO 8601 extended format** and use the **DTC** suffix.\n\n## Format\n\nDate/time variables are stored as **character** (Char) data types and must use the **ISO 8601 extended format**, which requires hyphen delimiters for date components and colon delimiters for time components. The basic format (without delimiters) is **not** permitted. **[Source: chapters/ch04_general_assumptions.md -- 4.4.1]**\n\nThe ISO 8601 representation follows this pattern:\n\n```\nYYYY-MM-DDThh:mm:ss(.n+)?(((+|-)hh:mm)|Z)?\n```\n\nWhere:\n- `YYYY` = four-digit year\n- `MM` = two-digit month (01-12)\n- `DD` = two-digit day (01-31)\n- `T` = time designator (indicates time information follows)\n- `hh` = two-digit hour (00-23, am/pm NOT allowed)\n- `mm` = two-digit minute (00-59)\n- `ss` = two-digit second (00-59)\n- `(.n+)?` = optional fractional seconds\n- `(((+|-)hh:mm)|Z)?` = optional time zone\n\n**Spaces are not allowed** in any ISO 8601 representations. **[Source: chapters/ch04_general_assumptions.md -- 4.4.1]**\n\n## Suffix\n\nThe SDTM fragment employed for date/time character variables is **DTC**. **[Source: chapters/ch04_general_assumptions.md -- 4.4.1]**\n\nThis suffix is used in variable names such as:\n- `--DTC` — Date/Time of Collection (primary date/time for the observation)\n- `--STDTC` — Start Date/Time of Observation\n- `--ENDTC` — End Date/Time of Observation\n\nThese are classified as **Timing** variables in the SDTM model. **[Source: model/02_observation_classes.md -- 3.1.5]**\n\n## Precision\n\nPrecision is handled through the ISO 8601 standard by the presence or absence of components. Missing components are represented by right truncation or a hyphen (for intermediate missing components). If date and time are completely missing, the field should be null. **[Source: chapters/ch04_general_assumptions.md -- 4.4.2]**\n\nExamples of precision levels:\n- `2003-12-15T13:14:17.123` — Date/time with fractional seconds\n- `2003-12-15T13:14:17` — Date/time to nearest second\n- `2003-12-15` — Date only (unknown time)\n- `2003-12` — Year and month only\n- `2003` — Year only\n\n## Controlled Terms\n\nThe controlled terms for DTC variables are specified as **\"ISO 8601 datetime or interval\"**, meaning the value can be either a single date/time point or a date/time interval (separated by a solidus `/`). **[Source: domains/VS/spec.md -- VSDTC; domains/DM/spec.md -- DMDTC; domains/SS/spec.md -- SSDTC]**",
      "elapsed_s": 7.61
    },
    {
      "id": "q18",
      "category": "mixed",
      "question": "Explain the MedDRA coding chain for adverse events from verbatim term to dictionary term.",
      "source_recall": 1.0,
      "source_hits": [
        "domains/AE/spec.md",
        "domains/AE/assumptions.md"
      ],
      "source_misses": [],
      "top5_sources": [
        "chapters/ch04_general_assumptions.md",
        "domains/MH/assumptions.md",
        "domains/AE/assumptions.md",
        "terminology/core/trial_design.md",
        "domains/AE/spec.md"
      ],
      "top5_similarities": [
        0.6726,
        0.6303,
        0.6289,
        0.6197,
        0.6135
      ],
      "fact_recall": 1.0,
      "fact_hits": [
        "AETERM",
        "AEMODIFY",
        "AEDECOD",
        "Preferred Term"
      ],
      "fact_misses": [],
      "answer_preview": "## MedDRA Coding Chain for Adverse Events\n\nThe MedDRA coding chain for adverse events in SDTM progresses from the verbatim collected term through multiple levels of the MedDRA hierarchy, each represented by specific variables in the AE domain.\n\n### 1. Verbatim Term (AETERM)\n\n**AETERM** captures the exact verbatim term as collected on the CRF. It is the **Topic** variable for the AE domain, **Required** (Core: Req), and must always have a value. **[Source: domains/AE/spec.md — AETERM]**\n\n### 2. Modified Reported Term (AEMODIFY)\n\n**AEMODIFY** is a **Permissible** (Core: Perm) **Synonym Qualifier",
      "usage": {
        "prompt_tokens": 13865,
        "completion_tokens": 1533,
        "total_tokens": 15398
      },
      "model": "deepseek/deepseek-chat",
      "answer": "## MedDRA Coding Chain for Adverse Events\n\nThe MedDRA coding chain for adverse events in SDTM progresses from the verbatim collected term through multiple levels of the MedDRA hierarchy, each represented by specific variables in the AE domain.\n\n### 1. Verbatim Term (AETERM)\n\n**AETERM** captures the exact verbatim term as collected on the CRF. It is the **Topic** variable for the AE domain, **Required** (Core: Req), and must always have a value. **[Source: domains/AE/spec.md — AETERM]**\n\n### 2. Modified Reported Term (AEMODIFY)\n\n**AEMODIFY** is a **Permissible** (Core: Perm) **Synonym Qualifier** variable. It should be included if the sponsor's procedures permit modification of a verbatim term to aid in coding. The variable should be populated per sponsor procedures; null values are permitted. **[Source: domains/AE/assumptions.md — item_2.b]**\n\n### 3. Lowest Level Term (AELLT) and Code (AELLTCD)\n\n- **AELLT** (Lowest Level Term): **Expected** (Core: Exp), **Variable Qualifier**, controlled by MedDRA. Represents the most granular level in the MedDRA hierarchy. **[Source: domains/AE/spec.md — AELLT]**\n- **AELLTCD** (Lowest Level Term Code): **Expected** (Core: Exp), **Variable Qualifier** of AELLT, controlled by MedDRA. The dictionary-derived numeric code for the LLT. **[Source: domains/AE/spec.md — AELLTCD]**\n\n### 4. Preferred Term (AEDECOD) and Code (AEPTCD)\n\n- **AEDECOD** (Dictionary-Derived Term): **Required** (Core: Req), **Synonym Qualifier**. This is the dictionary-derived text description of AETERM or AEMODIFY, equivalent to the Preferred Term (PT) in MedDRA. The sponsor must provide the dictionary name and version in Define-XML. **[Source: domains/AE/spec.md — AEDECOD]**\n- **AEPTCD** (Preferred Term Code): **Expected** (Core: Exp), **Variable Qualifier** of AEDECOD, controlled by MedDRA. The dictionary-derived code for the preferred term. **[Source: domains/AE/spec.md — AEPTCD]**\n\n### 5. High Level Term (AEHLT) and Code (AEHLTCD)\n\n- **AEHLT** (High Level Term): **Expected** (Core: Exp), **Variable Qualifier**, controlled by MedDRA. A grouping level above PT in the MedDRA hierarchy. **[Source: domains/AE/spec.md — AEHLT]**\n- **AEHLTCD** (High Level Term Code): **Expected** (Core: Exp), **Variable Qualifier** of AEHLT, controlled by MedDRA. **[Source: domains/AE/spec.md — AEHLTCD]**\n\n### 6. High Level Group Term (AEHLGT) and Code (AEHLGTCD)\n\n- **AEHLGT** (High Level Group Term): **Expected** (Core: Exp), **Variable Qualifier**, controlled by MedDRA. A grouping level above HLT. **[Source: domains/AE/spec.md — AEHLGT]**\n- **AEHLGTCD** (High Level Group Term Code): **Expected** (Core: Exp), **Variable Qualifier** of AEHLGT, controlled by MedDRA. **[Source: domains/AE/spec.md — AEHLGTCD]**\n\n### 7. Body System or Organ Class (AEBODSYS) and Code (AEBDSYCD)\n\n- **AEBODSYS** (Body System or Organ Class): **Expected** (Core: Exp), **Record Qualifier**. Represents the SOC from the coding dictionary as assigned by the sponsor for analysis. This may differ from the primary SOC designated in MedDRA's standard hierarchy. **[Source: domains/AE/assumptions.md — item_2.d]**\n- **AEBDSYCD** (Body System or Organ Class Code): **Expected** (Core: Exp), **Variable Qualifier** of AEBODSYS, controlled by MedDRA. **[Source: domains/AE/spec.md — AEBDSYCD]**\n\n### 8. Primary System Organ Class (AESOC) and Code (AESOCCD)\n\n- **AESOC** (Primary System Organ Class): **Expected** (Core: Exp), **Variable Qualifier**. Represents the dictionary-derived primary SOC. In cases where the primary SOC was used for analysis, AEBODSYS and AESOC are the same. **[Source: chapters/ch04_general_assumptions.md — §4.3.5]**\n- **AESOCCD** (Primary System Organ Class Code): **Expected** (Core: Exp), **Variable Qualifier** of AESOC, controlled by MedDRA. **[Source: domains/AE/spec.md — AESOCCD]**\n\n### Summary of the Coding Chain\n\n```\nAETERM (Verbatim)\n    ↓\nAEMODIFY (Modified, if applicable)\n    ↓\nAELLT / AELLTCD (Lowest Level Term)\n    ↓\nAEDECOD / AEPTCD (Preferred Term) ← Required\n    ↓\nAEHLT / AEHLTCD (High Level Term)\n    ↓\nAEHLGT / AEHLGTCD (High Level Group Term)\n    ↓\nAEBODSYS / AEBDSYCD (Body System/Organ Class — sponsor-assigned SOC)\nAESOC / AESOCCD (Primary System Organ Class — dictionary-derived)\n```\n\n### Key Rules\n\n1. **AEDECOD is Required** — must always be populated with the MedDRA Preferred Term. **[Source: domains/AE/spec.md — AEDECOD]**\n2. **AEBODSYS is Expected** — represents the SOC used for the sponsor's analysis, which may differ from the primary SOC. **[Source: domains/AE/assumptions.md — item_2.d]**\n3. **AESOC is Expected** — represents the dictionary-derived primary SOC. **[Source: chapters/ch04_general_assumptions.md — §4.3.5]**\n4. **Intermediate levels** (LLT, HLT, HLGT) and their codes are **Expected** — they should be represented when MedDRA is used. **[Source: chapters/ch04_general_assumptions.md — §4.3.5]**\n5. **Dictionary metadata** — the sponsor must provide the dictionary name (e.g., MedDRA) and version in Define-XML using the external codelist element. **[Source: domains/AE/spec.md — AEDECOD]**\n\n### Example from Implementation\n\nFrom the AE example data:\n- AETERM = \"POUNDING HEADACHE\" → AEMODIFY = \"Headache\" → AEDECOD = \"Headache\" → AEBODSYS = \"Nervous system disorders\" **[Source: domains/AE/examples.md — Example 1]**",
      "elapsed_s": 14.44
    },
    {
      "id": "q19",
      "category": "mixed",
      "question": "What controlled terminology codelist is used for DSDECOD when DSCAT equals 'DISPOSITION EVENT', and list specific CDISC Submission Values from that codelist for reasons of non-completion.",
      "source_recall": 1.0,
      "source_hits": [
        "domains/DS/assumptions.md",
        "terminology/core/disposition.md"
      ],
      "source_misses": [],
      "top5_sources": [
        "domains/DS/spec.md",
        "domains/DS/assumptions.md",
        "domains/DS/spec.md",
        "domains/DS/assumptions.md",
        "domains/DS/spec.md"
      ],
      "top5_similarities": [
        0.8036,
        0.7554,
        0.7248,
        0.7185,
        0.7036
      ],
      "fact_recall": 1.0,
      "fact_hits": [
        "NCOMPLT",
        "C66727"
      ],
      "fact_misses": [],
      "answer_preview": "Based on the retrieved context, when `DSCAT` equals `\"DISPOSITION EVENT\"`, the controlled terminology codelist used for `DSDECOD` is **C66727 (Completion/Reason for Non-Completion)**.\n\n**[Source: domains/DS/spec.md — DSDECOD]**  \n**[Source: domains/DS/assumptions.md — item_3.b.ii]**\n\nThe context explicitly states: *\"Codelist 'NCOMPLT' is used for disposition events\"* (where NCOMPLT is the CDISC submission value name for C66727).\n\nHowever, the retrieved context does **not** contain the specific CDISC Submission Values from the C66727 codelist for reasons of non-completion. The context only prov",
      "usage": {
        "prompt_tokens": 10644,
        "completion_tokens": 349,
        "total_tokens": 10993
      },
      "model": "deepseek/deepseek-chat",
      "answer": "Based on the retrieved context, when `DSCAT` equals `\"DISPOSITION EVENT\"`, the controlled terminology codelist used for `DSDECOD` is **C66727 (Completion/Reason for Non-Completion)**.\n\n**[Source: domains/DS/spec.md — DSDECOD]**  \n**[Source: domains/DS/assumptions.md — item_3.b.ii]**\n\nThe context explicitly states: *\"Codelist 'NCOMPLT' is used for disposition events\"* (where NCOMPLT is the CDISC submission value name for C66727).\n\nHowever, the retrieved context does **not** contain the specific CDISC Submission Values from the C66727 codelist for reasons of non-completion. The context only provides one example:\n\n- **COMPLETED** — used when the subject completed the study/treatment **[Source: domains/DS/assumptions.md — item_3.b.i]**\n\nFor actual non-completion reasons (e.g., \"LOST TO FOLLOW-UP\", \"ADVERSE EVENT\", \"WITHDREW CONSENT\", \"DEATH\", etc.), the full list of CDISC Submission Values is **not available in the provided context**. The context notes that the codelist is *extensible* and that sponsors map verbatim terms to standardized terms from this codelist, but the specific values are not enumerated in the retrieved documents.\n\nTo obtain the complete list of CDISC Submission Values for C66727 (NCOMPLT), you would need to consult the terminology file at `terminology/core/disposition.md` under the \"Completion/Reason for Non-Completion\" section, which was not retrieved in this context.",
      "elapsed_s": 5.33
    },
    {
      "id": "q20",
      "category": "mixed",
      "question": "In the DM domain, what is the difference between the RFSTDTC/RFENDTC reference period pair and the RFXSTDTC/RFXENDTC pair, and under what circumstances will RFSTDTC be null?",
      "source_recall": 1.0,
      "source_hits": [
        "domains/DM/assumptions.md",
        "domains/DM/spec.md"
      ],
      "source_misses": [],
      "top5_sources": [
        "domains/DM/assumptions.md",
        "domains/DM/assumptions.md",
        "domains/DM/spec.md",
        "domains/DM/spec.md",
        "domains/DM/assumptions.md"
      ],
      "top5_similarities": [
        0.6653,
        0.6588,
        0.6249,
        0.5843,
        0.5816
      ],
      "fact_recall": 1.0,
      "fact_hits": [
        "sponsor-defined",
        "screen failure"
      ],
      "fact_misses": [],
      "answer_preview": "## Difference Between RFSTDTC/RFENDTC and RFXSTDTC/RFXENDTC\n\n### RFSTDTC / RFENDTC (Subject Reference Start/End Date/Time)\n- **Role:** Record Qualifier\n- **Core:** Expected\n- **Definition:** Sponsor-defined reference period. Usually represents the date/time of first and last study exposure, but **is open to customization** based on study design. **[Source: domains/DM/assumptions.md -- item_10a]**\n- **Customization examples:** In studies with a washout period before randomization, or where a medical procedure is required during screening (e.g., biopsy), RFSTDTC may be the enrollment date (prior",
      "usage": {
        "prompt_tokens": 10500,
        "completion_tokens": 847,
        "total_tokens": 11347
      },
      "model": "deepseek/deepseek-chat",
      "answer": "## Difference Between RFSTDTC/RFENDTC and RFXSTDTC/RFXENDTC\n\n### RFSTDTC / RFENDTC (Subject Reference Start/End Date/Time)\n- **Role:** Record Qualifier\n- **Core:** Expected\n- **Definition:** Sponsor-defined reference period. Usually represents the date/time of first and last study exposure, but **is open to customization** based on study design. **[Source: domains/DM/assumptions.md -- item_10a]**\n- **Customization examples:** In studies with a washout period before randomization, or where a medical procedure is required during screening (e.g., biopsy), RFSTDTC may be the enrollment date (prior to first dose). **[Source: domains/DM/assumptions.md -- item_10a]**\n- **Impact:** Study day values (--DY) are calculated using RFSTDTC, so if RFSTDTC is not the first dose date, study days will not be based on first dose. **[Source: domains/DM/assumptions.md -- item_10a]**\n\n### RFXSTDTC / RFXENDTC (Date/Time of First/Last Study Treatment)\n- **Role:** Record Qualifier\n- **Core:** Expected\n- **Definition:** A **consistent, non-customizable** reference period for all interventional studies. RFXSTDTC and RFXENDTC **always** represent the date/time of first and last study exposure. **[Source: domains/DM/assumptions.md -- item_10b]**\n- **Key guarantee:** This pair ensures that a reviewer can **always** reference the first and last study exposure period, even if RFSTDTC has been customized to a different milestone. **[Source: domains/DM/assumptions.md -- item_10b]**\n- **Alignment:** RFXSTDTC should be the same as SESTDTC for the first treatment element in SE; RFXENDTC may equal SEENDTC for the last treatment element. **[Source: domains/DM/assumptions.md -- item_10b]**\n- **Source values:** RFXSTDTC equals the earliest EXSTDTC; RFXENDTC equals the latest EXENDTC (or EXSTDTC if EXENDTC is missing). **[Source: domains/DM/spec.md -- RFXSTDTC, RFXENDTC]**\n\n### Summary of Key Difference\n\n| Aspect | RFSTDTC/RFENDTC | RFXSTDTC/RFXENDTC |\n|--------|-----------------|-------------------|\n| Customization | Sponsor-defined, customizable | Fixed, always first/last exposure |\n| Consistency | May vary by study design | Consistent across all interventional studies |\n| Reviewer guarantee | Not guaranteed to be exposure-based | Guaranteed to be exposure-based |\n\n---\n\n## When RFSTDTC Will Be Null\n\nRFSTDTC will be null for subjects who are **not treated** or **not exposed to study treatment**, specifically:\n\n1. **Screen failures** — subjects with ARMNRS = \"SCREEN FAILURE\" **[Source: domains/DM/assumptions.md -- item_9]**\n2. **Enrolled but not assigned** — subjects with ARMNRS = \"NOT ASSIGNED\" **[Source: domains/DM/assumptions.md -- item_9]**\n3. **Randomized but not treated** — subjects with ARMNRS = \"NOT TREATED\" **[Source: domains/DM/assumptions.md -- item_9]**\n\n### Exception for Non-Interventional Studies\nFor studies with designs where a substantial portion of subjects are not expected to be treated (e.g., non-interventional/observational studies, studies with a no-treatment arm, or studies with a delay between randomization and treatment), a **different protocol milestone** may be chosen as RFSTDTC instead of first exposure. In such cases, RFSTDTC would not be null for untreated subjects because it is based on a different milestone. **[Source: domains/DM/assumptions.md -- item_9]**",
      "elapsed_s": 9.07
    },
    {
      "id": "q42",
      "category": "mixed",
      "question": "In the LB domain, how are normal ranges represented using LBORNRLO and LBORNRHI, and what is the LBNRIND variable used for?",
      "source_recall": 1.0,
      "source_hits": [
        "domains/LB/spec.md",
        "domains/LB/assumptions.md"
      ],
      "source_misses": [],
      "top5_sources": [
        "domains/LB/spec.md",
        "domains/LB/assumptions.md",
        "domains/LB/assumptions.md",
        "domains/LB/spec.md",
        "domains/LB/spec.md"
      ],
      "top5_similarities": [
        0.7713,
        0.764,
        0.7124,
        0.6936,
        0.6934
      ],
      "fact_recall": 1.0,
      "fact_hits": [
        "LBORNRLO",
        "LBORNRHI",
        "LBNRIND"
      ],
      "fact_misses": [],
      "answer_preview": "Based on the retrieved context, here is how normal ranges are represented in the LB domain using `LBORNRLO`, `LBORNRHI`, and the `LBNRIND` variable.\n\n### Normal Range Representation (LBORNRLO and LBORNRHI)\n\n- **LBORNRLO** (Reference Range Lower Limit in Orig Unit) and **LBORNRHI** (Reference Range Upper Limit in Orig Unit) are used to define the normal reference range for a continuous laboratory measurement in its original units. **[Source: domains/LB/spec.md -- LBORNRLO] [Source: domains/LB/spec.md -- LBORNRHI]**\n- These variables should only be populated for continuous (numeric) results. **[",
      "usage": {
        "prompt_tokens": 10728,
        "completion_tokens": 548,
        "total_tokens": 11276
      },
      "model": "deepseek/deepseek-chat",
      "answer": "Based on the retrieved context, here is how normal ranges are represented in the LB domain using `LBORNRLO`, `LBORNRHI`, and the `LBNRIND` variable.\n\n### Normal Range Representation (LBORNRLO and LBORNRHI)\n\n- **LBORNRLO** (Reference Range Lower Limit in Orig Unit) and **LBORNRHI** (Reference Range Upper Limit in Orig Unit) are used to define the normal reference range for a continuous laboratory measurement in its original units. **[Source: domains/LB/spec.md -- LBORNRLO] [Source: domains/LB/spec.md -- LBORNRHI]**\n- These variables should only be populated for continuous (numeric) results. **[Source: domains/LB/spec.md -- LBORNRLO] [Source: domains/LB/spec.md -- LBORNRHI]**\n- For non-continuous results (e.g., ordinal scales like dipstick results, or descriptive tests like urine color), `LBORNRLO` and `LBORNRHI` should be left null. Instead, the normal range can be represented in `LBSTNRC` (Reference Range for Char Rslt-Std Units). **[Source: domains/LB/assumptions.md -- item_2]**\n\n### LBNRIND Variable\n\n- **LBNRIND** (Reference Range Indicator) is a variable that indicates where a specific result falls with respect to the defined reference range (e.g., from `LBORNRLO` and `LBORNRHI`). **[Source: domains/LB/spec.md -- LBNRIND] [Source: domains/LB/assumptions.md -- item_3]**\n- **Label:** Reference Range Indicator\n- **Type:** Char\n- **Role:** Variable Qualifier\n- **Core:** Expected (Exp)\n- **Controlled Terms:** C78736 (which includes values like \"NORMAL\", \"ABNORMAL\", \"HIGH\", \"LOW\") **[Source: domains/LB/spec.md -- LBNRIND]**\n- **CDISC Notes:** Sponsors must specify in the Define-XML metadata whether `LBNRIND` refers to the original or standard reference ranges and results. It is explicitly **not** used to indicate clinical significance. **[Source: domains/LB/spec.md -- LBNRIND]**\n- **Usage:** It is used to flag results that are, for example, \"HIGH\" or \"LOW\" relative to the normal range. Clinical significance is represented separately in the variable `LBCLSIG`. **[Source: domains/LB/assumptions.md -- item_3]**",
      "elapsed_s": 6.29
    },
    {
      "id": "q43",
      "category": "mixed",
      "question": "What is the controlled terminology codelist for the SEX variable in the DM domain? Provide the codelist code and describe the Core designation.",
      "source_recall": 1.0,
      "source_hits": [
        "domains/DM/spec.md"
      ],
      "source_misses": [],
      "top5_sources": [
        "domains/DM/spec.md",
        "domains/DS/spec.md",
        "domains/RELREC/spec.md",
        "chapters/ch04_general_assumptions.md",
        "domains/DM/spec.md"
      ],
      "top5_similarities": [
        0.6578,
        0.6522,
        0.6346,
        0.633,
        0.631
      ],
      "fact_recall": 1.0,
      "fact_hits": [
        "SEX",
        "C66731",
        "Req"
      ],
      "fact_misses": [],
      "answer_preview": "Based on the retrieved context, the controlled terminology codelist for the **SEX** variable in the **DM** domain is **C66731**.\n\n**Details:**\n\n- **Codelist Code:** C66731 (Sex) **[Source: domains/DM/spec.md]**\n- **Core Designation:** **Req** (Required) **[Source: domains/DM/spec.md]**\n\nThe variable is defined as a **Record Qualifier** with a **Char** type, and its CDISC Notes state: \"Sex of the subject.\" **[Source: domains/DM/spec.md]**",
      "usage": {
        "prompt_tokens": 9608,
        "completion_tokens": 122,
        "total_tokens": 9730
      },
      "model": "deepseek/deepseek-chat",
