{
  "summary": {
    "n_questions": 140,
    "model": "deepseek/deepseek-chat",
    "threshold": 0.85,
    "source_recall_avg": 0.9964,
    "source_recall_by_category": {
      "concept": 1.0,
      "cross_domain": 0.99,
      "mixed": 1.0,
      "single_domain": 1.0
    },
    "fact_recall_avg": 0.7868,
    "fact_recall_by_category": {
      "concept": 0.8093,
      "cross_domain": 0.6967,
      "mixed": 0.92,
      "single_domain": 0.8021
    },
    "total_tokens": 2155544,
    "overall": 0.8916,
    "overall_metric": "substring",
    "verdict": "PASS",
    "top_k": 15,
    "structured_lookup": true,
    "hybrid": {
      "fusion": "rrf",
      "alpha": null
    },
    "prompt_guardrail": true,
    "structured_answer": false
  },
  "results": [
    {
      "id": "q01",
      "category": "single_domain",
      "question": "What is AETERM and what are its variable attributes in the AE domain?",
      "source_recall": 1.0,
      "source_hits": [
        "domains/AE/spec.md"
      ],
      "source_misses": [],
      "top5_sources": [
        "domains/AE/spec.md",
        "domains/AE/spec.md",
        "domains/AE/spec.md",
        "domains/AE/spec.md",
        "domains/AE/assumptions.md"
      ],
      "top5_similarities": [
        0.5884,
        0.5778,
        0.5484,
        0.5477,
        0.6641
      ],
      "fact_recall": 1.0,
      "fact_hits": [
        "Topic",
        "Char",
        "Req",
        "Verbatim"
      ],
      "fact_misses": [],
      "answer_preview": "根据 SDTMIG v3.4 知识库，**AETERM** 是 AE（不良事件）域中的变量，其属性如下：\n\n- **Order:** 9\n- **Label:** Reported Term for the Adverse Event\n- **Type:** Char\n- **Controlled Terms:** （无受控术语）\n- **Role:** Topic\n- **Core:** Req\n- **CDISC Notes:** Verbatim name of the event.\n\n**[Source: domains/AE/spec.md -- AETERM]**\n\n此外，在 AE 域的假设中进一步说明：\n- AETERM 捕获事件收集到的原始术语，是 AE 数据集的**主题变量（topic variable）**，为必填变量且必须有值。\n- 如果申办方允许修改原始术语以利于编码，修改后的文本存储在 **AEMODIFY** 中。\n- 编码后的首选术语（如 MedDRA PT）存储在 **AEDECOD** 中。\n\n**[Source: domains/AE/assumptions.md -- item_2]**",
      "usage": {
        "prompt_tokens": 14042,
        "completion_tokens": 219,
        "total_tokens": 14261
      },
      "model": "deepseek/deepseek-chat",
      "answer": "根据 SDTMIG v3.4 知识库，**AETERM** 是 AE（不良事件）域中的变量，其属性如下：\n\n- **Order:** 9\n- **Label:** Reported Term for the Adverse Event\n- **Type:** Char\n- **Controlled Terms:** （无受控术语）\n- **Role:** Topic\n- **Core:** Req\n- **CDISC Notes:** Verbatim name of the event.\n\n**[Source: domains/AE/spec.md -- AETERM]**\n\n此外，在 AE 域的假设中进一步说明：\n- AETERM 捕获事件收集到的原始术语，是 AE 数据集的**主题变量（topic variable）**，为必填变量且必须有值。\n- 如果申办方允许修改原始术语以利于编码，修改后的文本存储在 **AEMODIFY** 中。\n- 编码后的首选术语（如 MedDRA PT）存储在 **AEDECOD** 中。\n\n**[Source: domains/AE/assumptions.md -- item_2]**",
      "elapsed_s": 6.75
    },
    {
      "id": "q02",
      "category": "single_domain",
      "question": "What are the required (Core=Req) variables in the DM domain?",
      "source_recall": 1.0,
      "source_hits": [
        "domains/DM/spec.md"
      ],
      "source_misses": [],
      "top5_sources": [
        "domains/DM/spec.md",
        "domains/DM/spec.md",
        "domains/DM/spec.md",
        "domains/DM/spec.md",
        "chapters/ch04_general_assumptions.md"
      ],
      "top5_similarities": [
        0.4813,
        0.4254,
        0.4052,
        0.404,
        0.5063
      ],
      "fact_recall": 1.0,
      "fact_hits": [
        "STUDYID",
        "DOMAIN",
        "USUBJID",
        "SUBJID",
        "SITEID",
        "SEX",
        "COUNTRY"
      ],
      "fact_misses": [],
      "answer_preview": "根据 SDTMIG v3.4，DM（Demographics）域的 **Required（Core=Req）** 变量如下：\n\n| 变量名 | Label | Type | Role | Core |\n|--------|-------|------|------|------|\n| STUDYID | Study Identifier | Char | Identifier | Req |\n| DOMAIN | Domain Abbreviation | Char | Identifier | Req |\n| USUBJID | Unique Subject Identifier | Char | Identifier | Req |\n| SUBJID | Subject Identifier for the Study | Char | Topic | Req |\n| SITEID | Study Site Identifier | Char | Identifier | Req |\n| RFSTDTC | Subject Reference Start Date/Time | Char | Timing | Req |\n| RFENDTC | Subject Reference End Date/Time | Char | Timing | Req |\n| BRTHDTC |",
      "usage": {
        "prompt_tokens": 13834,
        "completion_tokens": 557,
        "total_tokens": 14391
      },
      "model": "deepseek/deepseek-chat",
      "answer": "根据 SDTMIG v3.4，DM（Demographics）域的 **Required（Core=Req）** 变量如下：\n\n| 变量名 | Label | Type | Role | Core |\n|--------|-------|------|------|------|\n| STUDYID | Study Identifier | Char | Identifier | Req |\n| DOMAIN | Domain Abbreviation | Char | Identifier | Req |\n| USUBJID | Unique Subject Identifier | Char | Identifier | Req |\n| SUBJID | Subject Identifier for the Study | Char | Topic | Req |\n| SITEID | Study Site Identifier | Char | Identifier | Req |\n| RFSTDTC | Subject Reference Start Date/Time | Char | Timing | Req |\n| RFENDTC | Subject Reference End Date/Time | Char | Timing | Req |\n| BRTHDTC | Date/Time of Birth | Char | Timing | Req |\n| AGE | Age | Num | Synonym Qualifier | Req |\n| AGEU | Age Unit | Char | Variable Qualifier | Req |\n| SEX | Sex | Char | Synonym Qualifier | Req |\n| RACE | Race | Char | Synonym Qualifier | Req |\n| ETHNIC | Ethnicity | Char | Synonym Qualifier | Req |\n| ARMCD | Planned Arm Code | Char | Record Qualifier | Req |\n| ARM | Description of Planned Arm | Char | Record Qualifier | Req |\n| ACTARMCD | Actual Arm Code | Char | Record Qualifier | Req |\n| ACTARM | Description of Actual Arm | Char | Record Qualifier | Req |\n| COUNTRY | Country | Char | Record Qualifier | Req |\n| DMDTC | Date/Time of Collection | Char | Timing | Req |\n| DMDY | Study Day of Collection | Num | Timing | Req |\n\n**[Source: domains/DM/spec.md]**（DM 域变量定义表）\n\n**补充说明：**\n- DM 是一个 **Special-Purpose** 域，是所有人受试者临床观察的父域 **[Source: domains/DM/assumptions.md]**。\n- 根据 SDTM 通用假设，Required 变量必须始终包含在数据集中，且不能为任何记录留空 **[Source: chapters/ch04_general_assumptions.md §4.1.5]**。\n- DM 域中除 DMDTC 和 DMDY 外，其他变量均不使用域标识符前缀（即变量名不以 \"DM\" 开头），这是对 Required Identifiers 和 DM 域变量的特殊例外 **[Source: chapters/ch04_general_assumptions.md §4.2.2]**。",
      "elapsed_s": 6.76
    },
    {
      "id": "q03",
      "category": "single_domain",
      "question": "What are the key assumptions for adverse event data collection and coding?",
      "source_recall": 1.0,
      "source_hits": [
        "domains/AE/assumptions.md"
      ],
      "source_misses": [],
      "top5_sources": [
        "domains/AE/assumptions.md",
        "domains/FA/examples.md",
        "domains/AE/assumptions.md",
        "domains/AE/assumptions.md",
        "domains/AE/assumptions.md"
      ],
      "top5_similarities": [
        0.5919,
        0.5041,
        0.5608,
        0.5755,
        0.5716
      ],
      "fact_recall": 1.0,
      "fact_hits": [
        "AETERM",
        "MedDRA",
        "AEDECOD"
      ],
      "fact_misses": [],
      "answer_preview": "# 不良事件数据收集与编码的关键假设\n\n## 一、数据收集范围\n\n1. **不良事件的定义**：AE 数据集包含\"在患者或临床研究受试者使用药物后发生的任何不良医学事件，且不一定与治疗有因果关系\"（ICH E2A）。经与监管机构协商，申办方可以扩展或限制不良事件收集范围（例如，收集与试验操作相关的治疗前事件，或不收集被评估为疗效终点的事件）。AE 数据集中包含的事件应与方案要求一致。不良事件可以以自由文本或预设术语列表的形式收集。**[Source: domains/AE/assumptions.md -- item_1]**\n\n2. **AE 域结构**：AE 域的结构为**每个受试者每个不良事件一条记录**。由申办方负责定义事件。此定义可能因申办方描述和报告产品安全性的要求而异，通常会在方案中描述。例如，申办方可以提交一条覆盖不良事件从开始到结束的记录。或者，如果需要更细粒度地评估 AE，申办方可以在严重程度、因果关系或严重性发生变化或恶化时提交新记录。提交数据集结构可能与收集时的结构不同。**[Source: domains/AE/assumptions.md -- item_7e]**\n\n## 二、编码与描述\n\n3. **AETERM（主题变量）**：捕获事件的原始术语。它是 AE 数据集的主题变量，为必需变量，必须有值。**[Source: domains/AE/assu",
      "usage": {
        "prompt_tokens": 16502,
        "completion_tokens": 1544,
        "total_tokens": 18046
      },
      "model": "deepseek/deepseek-chat",
      "answer": "# 不良事件数据收集与编码的关键假设\n\n## 一、数据收集范围\n\n1. **不良事件的定义**：AE 数据集包含\"在患者或临床研究受试者使用药物后发生的任何不良医学事件，且不一定与治疗有因果关系\"（ICH E2A）。经与监管机构协商，申办方可以扩展或限制不良事件收集范围（例如，收集与试验操作相关的治疗前事件，或不收集被评估为疗效终点的事件）。AE 数据集中包含的事件应与方案要求一致。不良事件可以以自由文本或预设术语列表的形式收集。**[Source: domains/AE/assumptions.md -- item_1]**\n\n2. **AE 域结构**：AE 域的结构为**每个受试者每个不良事件一条记录**。由申办方负责定义事件。此定义可能因申办方描述和报告产品安全性的要求而异，通常会在方案中描述。例如，申办方可以提交一条覆盖不良事件从开始到结束的记录。或者，如果需要更细粒度地评估 AE，申办方可以在严重程度、因果关系或严重性发生变化或恶化时提交新记录。提交数据集结构可能与收集时的结构不同。**[Source: domains/AE/assumptions.md -- item_7e]**\n\n## 二、编码与描述\n\n3. **AETERM（主题变量）**：捕获事件的原始术语。它是 AE 数据集的主题变量，为必需变量，必须有值。**[Source: domains/AE/assumptions.md -- item_2a]**\n\n4. **AEMODIFY（修改术语）**：如果申办方的流程允许修改原始术语以便编码，则应包含此变量。按申办方流程填写。**[Source: domains/AE/assumptions.md -- item_2b]**\n\n5. **AEDECOD（编码首选术语）**：由申办方根据编码词典派生的首选术语。为必需变量，必须有值。通常使用标准词典（如 MedDRA）对报告术语（AETERM）进行编码。申办方应在 Define-XML 文档中使用外部编码列表元素提供所使用的词典名称和版本。**[Source: domains/AE/assumptions.md -- item_2c]**\n\n6. **AEBODSYS（系统器官分类）**：来自编码词典的系统器官分类（SOC）。此值可能与编码词典标准层级中指定的主要 SOC 不同。预期应填写此变量。**[Source: domains/AE/assumptions.md -- item_2d]**\n\n## 三、预设术语与事件存在/缺失\n\n7. **AEPRESP（预设术语标识）**：值为\"Y\"表示 AETERM 中的事件是在 CRF 上预设的。如果研究同时收集预设不良事件和自由文本事件，则所有预设事件的 AEPRESP 应为\"Y\"，自由文本报告的事件应为空。如果所有不良事件均以自由文本收集，则可省略此变量。**[Source: domains/AE/assumptions.md -- item_4a, 4c]**\n\n8. **未发生事件的记录**：如果受试者\"无不良事件\"，则**不要在 AE 提交数据集中包含记录**。提交 AE 数据集应仅包含实际发生的不良事件记录。**[Source: domains/AE/assumptions.md -- item_4d]**\n\n9. **预设但未报告的事件**：如果需要知道预设列表中哪些不良事件未报告，这些数据应提交到 Findings 类数据集（如 FA 域）。应在该 Findings 数据集中为每个预设不良事件术语包含一条记录。实际发生的不良事件也应在 AE 数据集中存在记录，且 AEPRESP 设为\"Y\"。**[Source: domains/AE/assumptions.md -- item_4b]**\n\n## 四、严重性分类\n\n10. **严重性分类变量**：如果\"是否严重？\"回答为\"否\"，则严重性原因变量（如 AESCAN、AESCONG）可为空。如果回答为\"是\"，则至少其中一个变量应为\"Y\"。如果 CRF 结构要求对每个严重性类别都收集响应，则所有类别变量（如 AESDTH、AESHOSP）都应填写，AESER 应派生得出。**[Source: domains/AE/assumptions.md -- item_7a]**\n\n11. **非 ICH 严重性类别**：\"涉及癌症\"（AESCAN）和\"发生药物过量\"（AESOD）不属于 ICH 严重不良事件定义的一部分，但在 FDA 采用 ICH 定义之前进行的指南下开展的研究中可用。**[Source: domains/AE/assumptions.md -- item_7b]**\n\n12. **其他重要医学事件描述**：如果收集\"其他重要医学严重不良事件\"类别的描述，应使用标准补充限定词名称代码 AEOSP 将其放入 SUPPAE 数据集。**[Source: domains/AE/assumptions.md -- item_7c]**\n\n13. **毒性分级**：如果使用标准毒性量表（如 CTCAE），应使用 AETOXGR 代替 AESEV。大多数情况下，AESEV 或 AETOXGR 中只填写一个，但两者也可能都需要填写。申办方应在 Define-XML 中提供所使用的词典名称和版本。**[Source: domains/AE/assumptions.md -- item_7d]**\n\n## 五、时间变量\n\n14. **EPOCH 和 TAETORD**：当 AE 域中包含 EPOCH 时，应基于不良事件开始的日期（AESTDTC），而非结束日期（AEENDTC）。如果 AESTDTC 和 SESTDTC 的精度不足以明确确定事件发作的时期，Define-XML 中的计算方法应描述所做的任何假设。TAETORD 同理。**[Source: domains/AE/assumptions.md -- item_8]**\n\n## 六、与其他域的关系\n\n15. **临床事件（CE）域**：在 CE CRF 上收集可填写事件时应谨慎。申办方必须确保所有不良事件都记录在 AE 域中。**[Source: domains/CE/assumptions.md -- item_3]**\n\n16. **FA 域的使用**：当需要捕获关于事件或干预的发现时，使用 FA 结构。适用标准包括：\n    - **标准 1**：与相关事件或干预整体具有不同时间点的数据或观察（例如，在多个时间点测量的症状严重程度）\n    - **标准 2**：需要多个变量表示的事件或干预观察，无法作为补充限定词包含\n    - **标准 3**：指示预设 AE 发生的数据或信息 **[Source: domains/FA/assumptions.md -- item_6, §6.4.1]**\n\n17. **RELREC 关系**：当需要表示 DS 记录与 AE 记录之间的关系时（例如，因不良事件导致研究终止），应使用 RELREC 数据集。**[Source: domains/DS/examples.md -- Example 4]**\n\n18. **SUPPAE 补充数据**：当需要向 AE 数据添加补充限定信息时，使用 SUPPAE 数据集，通过 AESEQ 作为关键变量链接到父 AE 记录。**[Source: domains/SUPPQUAL/examples.md -- Example 1]**",
      "elapsed_s": 15.54
    },
    {
      "id": "q04",
      "category": "single_domain",
      "question": "What is the purpose of the TV (Trial Visits) domain and what variables does it contain?",
      "source_recall": 1.0,
      "source_hits": [
        "domains/TV/spec.md"
      ],
      "source_misses": [],
      "top5_sources": [
        "domains/TV/spec.md",
        "domains/TV/spec.md",
        "domains/TV/spec.md",
        "domains/TV/spec.md",
        "domains/SV/assumptions.md"
      ],
      "top5_similarities": [
        0.5894,
        0.4733,
        0.4706,
        0.47,
        0.6873
      ],
      "fact_recall": 1.0,
      "fact_hits": [
        "VISITNUM",
        "VISIT"
      ],
      "fact_misses": [],
      "answer_preview": "## TV（Trial Visits）域的目的与变量\n\n### 目的\n\nTV（Trial Visits）域属于 **Trial Design** 类，用于描述方案定义的受试者临床访视的计划安排。其核心目的是：\n\n- 定义试验中所有计划访视的标准化描述（包括访视名称、编号、计划天数）\n- 提供访视的开始和结束规则，这些规则通常相对于某个元素（Element）或时期（Epoch）的起始/结束来表达\n- 作为受试者实际访视数据（SV 域）的对照基准，用于识别计划但未完成的访视以及实际访视时间与计划的偏差\n\n**[Source: domains/TV/assumptions.md — overview]**\n\nTV 域与 TA（Trial Arms）、TE（Trial Elements）、TD（Trial Disease Assessments）、TM（Trial Disease Milestones）、TS（Trial Summary）等同属 Trial Design 类域。\n\n**[Source: domains/TV/spec.md — Related Domains]**\n\n---\n\n### 变量列表\n\n根据 TV 域的规范定义，其包含以下变量：\n\n| Order | 变量名 | Label | Type | Role | Core | Controlled Terms |\n|--",
      "usage": {
        "prompt_tokens": 14332,
        "completion_tokens": 800,
        "total_tokens": 15132
      },
      "model": "deepseek/deepseek-chat",
      "answer": "## TV（Trial Visits）域的目的与变量\n\n### 目的\n\nTV（Trial Visits）域属于 **Trial Design** 类，用于描述方案定义的受试者临床访视的计划安排。其核心目的是：\n\n- 定义试验中所有计划访视的标准化描述（包括访视名称、编号、计划天数）\n- 提供访视的开始和结束规则，这些规则通常相对于某个元素（Element）或时期（Epoch）的起始/结束来表达\n- 作为受试者实际访视数据（SV 域）的对照基准，用于识别计划但未完成的访视以及实际访视时间与计划的偏差\n\n**[Source: domains/TV/assumptions.md — overview]**\n\nTV 域与 TA（Trial Arms）、TE（Trial Elements）、TD（Trial Disease Assessments）、TM（Trial Disease Milestones）、TS（Trial Summary）等同属 Trial Design 类域。\n\n**[Source: domains/TV/spec.md — Related Domains]**\n\n---\n\n### 变量列表\n\n根据 TV 域的规范定义，其包含以下变量：\n\n| Order | 变量名 | Label | Type | Role | Core | Controlled Terms |\n|-------|--------|-------|------|------|------|-----------------|\n| 1 | STUDYID | Study Identifier | Char | Identifier | Req | — |\n| 2 | DOMAIN | Domain Abbreviation | Char | Identifier | Req | TV |\n| 3 | VISITNUM | Visit Number | Num | Topic | Req | — |\n| 4 | VISIT | Visit Name | Char | Synonym Qualifier | Req | — |\n| 5 | VISITDY | Planned Study Day of Visit | Num | Timing | Req | — |\n| 6 | ARMCD | Planned Arm Code | Char | Topic | Perm | — |\n| 7 | ARM | Planned Arm | Char | Synonym Qualifier | Perm | — |\n| 8 | TVSTRL | Visit Start Rule | Char | Rule | Req | — |\n| 9 | TVENRL | Visit End Rule | Char | Rule | Perm | — |\n\n**[Source: domains/TV/spec.md — 各变量定义]**\n\n**关键变量说明：**\n\n- **VISITNUM**（Req）：访视编号，用于排序，应尽可能与计划访视的时间顺序一致\n- **VISIT**（Req）：访视名称，来自方案的文本描述\n- **VISITDY**（Req）：访视的计划研究日（即访视开始的计划天数）\n- **TVSTRL**（Req）：访视开始规则，描述访视何时开始（相对于元素或时期的起始/结束）\n- **TVENRL**（Perm）：访视结束规则，描述访视何时结束\n- **ARMCD / ARM**（Perm）：当不同试验组有不同访视计划时填写；若所有组访视计划相同则留空\n\n**[Source: domains/TV/assumptions.md — item_1]**\n\n---\n\n### 数据结构\n\nTV 域的基本结构为 **\"每个计划访视每条记录\"**。对于大多数临床试验（尤其是盲法试验），所有组的访视计划相同，此时 ARMCD 和 ARM 留空；若不同组访视计划不同，则需为所有记录填写 ARMCD 和 ARM。\n\n**[Source: domains/TV/assumptions.md — item_1]**\n\n访视开始规则通常相对于元素或时期的起始/结束来表达（例如 \"Treatment Epoch 开始后 1 周\"、\"Screen Epoch 结束前 30 分钟\"）。访视可能跨越时期转换（如访视 2 跨越 Screening → Run-In 的转换），也可能在时期内部发生。\n\n**[Source: domains/TV/examples.md — Example 1]**",
      "elapsed_s": 8.66
    },
    {
      "id": "q05",
      "category": "single_domain",
      "question": "In the PE (Physical Examination) domain, what is the structure of the dataset, what is the role of the PETESTCD variable, and what value should PETESTCD have when the results of the entire physical examination are represented in one record?",
      "source_recall": 1.0,
      "source_hits": [
        "domains/PE/spec.md"
      ],
      "source_misses": [],
      "top5_sources": [
        "domains/PE/spec.md",
        "domains/PE/spec.md",
        "domains/PE/spec.md",
        "domains/PE/spec.md",
        "VARIABLE_INDEX.md"
      ],
      "top5_similarities": [
        0.731,
        0.7026,
        0.5645,
        0.5643,
        0.6909
      ],
      "fact_recall": 1.0,
      "fact_hits": [
        "PETESTCD",
        "Topic",
        "PHYSEXAM"
      ],
      "fact_misses": [],
      "answer_preview": "Based on the retrieved context, here are the answers to your questions about the PE (Physical Examination) domain:\n\n**1. Dataset Structure**\n\nThe PE domain is a **Findings** class domain. The dataset structure is \"One record per body system examined per subject per visit\" (implied by the examples and variable roles). Each record represents the finding for a specific body system (e.g., Head, Skin, Heart) or the entire physical examination as a single record.\n\n**2. Role of PETESTCD**\n\nThe variable **PETESTCD** has a **Role** of **Topic**. This means it is the main subject of the observation, ide",
      "usage": {
        "prompt_tokens": 16980,
        "completion_tokens": 219,
        "total_tokens": 17199
      },
      "model": "deepseek/deepseek-chat",
      "answer": "Based on the retrieved context, here are the answers to your questions about the PE (Physical Examination) domain:\n\n**1. Dataset Structure**\n\nThe PE domain is a **Findings** class domain. The dataset structure is \"One record per body system examined per subject per visit\" (implied by the examples and variable roles). Each record represents the finding for a specific body system (e.g., Head, Skin, Heart) or the entire physical examination as a single record.\n\n**2. Role of PETESTCD**\n\nThe variable **PETESTCD** has a **Role** of **Topic**. This means it is the main subject of the observation, identifying what is being examined. It serves as the short name for the body system examined. **[Source: domains/PE/spec.md]**\n\n**3. Value for a Single Record Representing the Entire Examination**\n\nWhen the results of the entire physical examination are represented in a single record, the value for **PETESTCD** should be **\"PHYSEXAM\"**. **[Source: domains/PE/spec.md]**",
      "elapsed_s": 4.12
    },
    {
      "id": "q21",
      "category": "single_domain",
      "question": "What is the LBTESTCD variable in the LB (Laboratory Test Results) domain? Describe its role, controlled terminology codelist code, and naming constraints.",
      "source_recall": 1.0,
      "source_hits": [
        "domains/LB/spec.md"
      ],
      "source_misses": [],
      "top5_sources": [
        "domains/LB/spec.md",
        "terminology/core/lb_part2.md",
        "domains/LB/spec.md",
        "domains/LB/assumptions.md",
        "domains/LB/examples.md"
      ],
      "top5_similarities": [
        0.7837,
        0.5222,
        0.7118,
        0.7499,
        0.6639
      ],
      "fact_recall": 0.6667,
      "fact_hits": [
        "Topic",
        "C65047"
      ],
      "fact_misses": [
        "8 characters"
      ],
      "answer_preview": "根据您的问题，以下是关于 **LB**（Laboratory Test Results）域中 **LBTESTCD** 变量的详细说明：\n\n## LBTESTCD 变量定义\n\n| 属性 | 值 |\n|------|------|\n| **Order** | 8 |\n| **Label** | Lab Test or Examination Short Name |\n| **Type** | Char |\n| **Controlled Terms** | C65047 |\n| **Role** | Topic |\n| **Core** | Req |\n\n**[Source: domains/LB/spec.md — LBTESTCD]**\n\n## 角色 (Role)\n\nLBTESTCD 的角色是 **Topic**，即主题变量。它指定了观察结果的焦点——具体实验室检测的简称。当数据集从垂直格式转换为水平格式时，LBTESTCD 可作为列名使用。\n\n**[Source: domains/LB/spec.md — LBTESTCD]**\n\n## 受控术语 (Controlled Terminology)\n\nLBTESTCD 使用的受控术语代码为 **C65047**（Laboratory Test Code）。该代码对应的完整值列表可在 `terminology/core/lb_part",
      "usage": {
        "prompt_tokens": 15966,
        "completion_tokens": 512,
        "total_tokens": 16478
      },
      "model": "deepseek/deepseek-chat",
      "answer": "根据您的问题，以下是关于 **LB**（Laboratory Test Results）域中 **LBTESTCD** 变量的详细说明：\n\n## LBTESTCD 变量定义\n\n| 属性 | 值 |\n|------|------|\n| **Order** | 8 |\n| **Label** | Lab Test or Examination Short Name |\n| **Type** | Char |\n| **Controlled Terms** | C65047 |\n| **Role** | Topic |\n| **Core** | Req |\n\n**[Source: domains/LB/spec.md — LBTESTCD]**\n\n## 角色 (Role)\n\nLBTESTCD 的角色是 **Topic**，即主题变量。它指定了观察结果的焦点——具体实验室检测的简称。当数据集从垂直格式转换为水平格式时，LBTESTCD 可作为列名使用。\n\n**[Source: domains/LB/spec.md — LBTESTCD]**\n\n## 受控术语 (Controlled Terminology)\n\nLBTESTCD 使用的受控术语代码为 **C65047**（Laboratory Test Code）。该代码对应的完整值列表可在 `terminology/core/lb_part2.md` 文件中找到，包含如 ALT、LDH 等标准实验室检测代码。\n\n**[Source: domains/LB/spec.md — Controlled Terminology]**\n\n## 命名约束 (Naming Constraints)\n\n根据 CDISC Notes，LBTESTCD 有以下严格的命名规则：\n\n1. **长度限制**：值不能超过 **8 个字符**\n2. **首字符限制**：不能以数字开头（例如 \"1TEST\" 无效）\n3. **允许字符**：只能包含 **字母、数字或下划线**（不能包含其他字符）\n\n**[Source: domains/LB/spec.md — LBTESTCD]**\n\n## 示例值\n\n- \"ALT\"（丙氨酸氨基转移酶）\n- \"LDH\"（乳酸脱氢酶）\n\n**[Source: domains/LB/spec.md — LBTESTCD]**\n\n## 与 LBTEST 的关系\n\nLBTESTCD 是 LBTEST（Lab Test or Examination Name）的短名称版本。LBTEST 使用受控术语代码 **C67154**，其值不能超过 40 个字符（例如 \"Alanine Aminotransferase\"）。LBTESTCD 作为 LBTEST 的缩写形式，两者通过受控术语系统关联。\n\n**[Source: domains/LB/spec.md — LBTEST]**",
      "elapsed_s": 6.35
    },
    {
      "id": "q22",
      "category": "single_domain",
      "question": "What is the VS (Vital Signs) domain and what are some examples of VSTESTCD values? Include the codelist code.",
      "source_recall": 1.0,
      "source_hits": [
        "domains/VS/spec.md"
      ],
      "source_misses": [],
      "top5_sources": [
        "domains/VS/spec.md",
        "terminology/core/vs.md",
        "domains/VS/spec.md",
        "VARIABLE_INDEX.md",
        "domains/VS/assumptions.md"
      ],
      "top5_similarities": [
        0.7384,
        0.5465,
        0.6467,
        0.6305,
        0.6914
      ],
      "fact_recall": 1.0,
      "fact_hits": [
        "Findings",
        "VSTESTCD",
        "C66741"
      ],
      "fact_misses": [],
      "answer_preview": "## VS（生命体征）域概述\n\n**VS（Vital Signs）** 是 SDTM 中属于 **Findings** 观察类的域，用于记录受试者的生命体征测量结果，如血压、心率、体温、呼吸频率、体重、身高、BMI 等。\n\n### 域结构\n- **Class:** Findings\n- **Structure:** 每个受试者每个测量结果一条记录（One record per vital sign measurement per subject）\n- **Purpose:** Tabulation\n\n### 关键变量\n| 变量名 | Label | Type | Role | Core |\n|--------|-------|------|------|------|\n| VSTESTCD | Vital Signs Test Short Name | Char | Topic | Req |\n| VSTEST | Vital Signs Test Name | Char | Synonym Qualifier | Req |\n| VSORRES | Result or Finding in Original Units | Char | Result Qualifier | Exp |\n| VSSTRESC | Character Result/Finding in Std Fo",
      "usage": {
        "prompt_tokens": 14245,
        "completion_tokens": 690,
        "total_tokens": 14935
      },
      "model": "deepseek/deepseek-chat",
      "answer": "## VS（生命体征）域概述\n\n**VS（Vital Signs）** 是 SDTM 中属于 **Findings** 观察类的域，用于记录受试者的生命体征测量结果，如血压、心率、体温、呼吸频率、体重、身高、BMI 等。\n\n### 域结构\n- **Class:** Findings\n- **Structure:** 每个受试者每个测量结果一条记录（One record per vital sign measurement per subject）\n- **Purpose:** Tabulation\n\n### 关键变量\n| 变量名 | Label | Type | Role | Core |\n|--------|-------|------|------|------|\n| VSTESTCD | Vital Signs Test Short Name | Char | Topic | Req |\n| VSTEST | Vital Signs Test Name | Char | Synonym Qualifier | Req |\n| VSORRES | Result or Finding in Original Units | Char | Result Qualifier | Exp |\n| VSSTRESC | Character Result/Finding in Std Format | Char | Result Qualifier | Exp |\n| VSSTRESN | Numeric Result/Finding in Standard Units | Num | Result Qualifier | Exp |\n| VSSTAT | Completion Status | Char | Record Qualifier | Perm |\n| VSPOS | Vital Signs Position of Subject | Char | Record Qualifier | Perm |\n| VSLOC | Location of Vital Signs Measurement | Char | Record Qualifier | Perm |\n\n[Source: domains/VS/spec.md]\n\n---\n\n## VSTESTCD 示例值（含 Codelist Code）\n\nVSTESTCD 使用受控术语 **C66741（Vital Signs Test Code）**，以下是常见示例值：\n\n| VSTESTCD | VSTEST（对应名称） |\n|----------|-------------------|\n| SYSBP | Systolic Blood Pressure |\n| DIABP | Diastolic Blood Pressure |\n| PULSE | Pulse Rate |\n| RESP | Respiratory Rate |\n| TEMP | Temperature |\n| WEIGHT | Weight |\n| HEIGHT | Height |\n| BMI | Body Mass Index |\n| MAP | Mean Arterial Pressure |\n| O2SAT | Oxygen Saturation |\n| HR | Heart Rate |\n| WAIST | Waist Circumference |\n\n**注意：** VSTESTCD 的值不能超过 8 个字符，不能以数字开头，且只能包含字母、数字和下划线。\n\n[Source: domains/VS/spec.md — VSTESTCD 定义及 CDISC Notes]\n\n---\n\n## 补充说明\n\n- **VSTEST** 使用受控术语 **C67153（Vital Signs Test Name）**，是 VSTESTCD 的完整名称版本 [Source: domains/VS/spec.md — VSTEST]\n- **单位**使用受控术语 **C66770（Units for Vital Signs Results）**，例如 beats/min、mmHg、°C、kg、cm 等 [Source: terminology/core/vs.md]\n- 当测量未进行时，使用 **VSSTAT = \"NOT DONE\"**（受控术语 C66789）[Source: domains/VS/spec.md — VSSTAT]\n- 受试者体位使用受控术语 **C71148（Position）**，例如 \"SUPINE\"、\"STANDING\"、\"SITTING\" [Source: domains/VS/spec.md — VSPOS]",
      "elapsed_s": 7.46
    },
    {
      "id": "q23",
      "category": "single_domain",
      "question": "In the CM (Concomitant Medications) domain, what is the CMTRT variable and what observation class does CM belong to?",
      "source_recall": 1.0,
      "source_hits": [
        "domains/CM/spec.md"
      ],
      "source_misses": [],
      "top5_sources": [
        "domains/CM/spec.md",
        "domains/CM/spec.md",
        "domains/CM/spec.md",
        "domains/CM/spec.md",
        "domains/CM/assumptions.md"
      ],
      "top5_similarities": [
        0.6736,
        0.6034,
        0.5926,
        0.5843,
        0.6595
      ],
      "fact_recall": 1.0,
      "fact_hits": [
        "CMTRT",
        "Interventions",
        "Topic",
        "Req"
      ],
      "fact_misses": [],
      "answer_preview": "根据提供的上下文，CM（Concomitant/Prior Medications）域属于 **Interventions** 观察类 [Source: domains/CM/assumptions.md -- overview]。\n\n**CMTRT** 变量的定义如下：\n\n- **Label:** Reported Name of Drug, Med, or Therapy\n- **Type:** Char\n- **Controlled Terms:** 无\n- **Role:** Topic\n- **Core:** Req\n- **CDISC Notes:** Verbatim medication name that is either preprinted or collected on a CRF.\n\n[Source: domains/CM/spec.md -- CMTRT]\n\n此外，CMTRT 是主题变量（Topic variable），用于捕获伴随药物/治疗的名称或用于收集一组药物/治疗信息的预设术语。它仅包含药物/治疗名称，不包括剂量、剂型等其他限定信息（例如 \"ASPIRIN 100MG TABLET\" 不是有效的 CMTRT 值，应拆分为 CMTRT=\"ASPIRIN\", CMDOSE=\"100\", CMDOSU=\"MG\", CMDOSFRM=\"TABLET\"）",
      "usage": {
        "prompt_tokens": 14656,
        "completion_tokens": 242,
        "total_tokens": 14898
      },
      "model": "deepseek/deepseek-chat",
      "answer": "根据提供的上下文，CM（Concomitant/Prior Medications）域属于 **Interventions** 观察类 [Source: domains/CM/assumptions.md -- overview]。\n\n**CMTRT** 变量的定义如下：\n\n- **Label:** Reported Name of Drug, Med, or Therapy\n- **Type:** Char\n- **Controlled Terms:** 无\n- **Role:** Topic\n- **Core:** Req\n- **CDISC Notes:** Verbatim medication name that is either preprinted or collected on a CRF.\n\n[Source: domains/CM/spec.md -- CMTRT]\n\n此外，CMTRT 是主题变量（Topic variable），用于捕获伴随药物/治疗的名称或用于收集一组药物/治疗信息的预设术语。它仅包含药物/治疗名称，不包括剂量、剂型等其他限定信息（例如 \"ASPIRIN 100MG TABLET\" 不是有效的 CMTRT 值，应拆分为 CMTRT=\"ASPIRIN\", CMDOSE=\"100\", CMDOSU=\"MG\", CMDOSFRM=\"TABLET\"）[Source: domains/CM/assumptions.md -- item_2]。",
      "elapsed_s": 3.69
    },
    {
      "id": "q24",
      "category": "single_domain",
      "question": "What is the EX (Exposure) domain used for and what is the Topic variable EXTRT?",
      "source_recall": 1.0,
      "source_hits": [
        "domains/EX/spec.md"
      ],
      "source_misses": [],
      "top5_sources": [
        "domains/EX/spec.md",
        "domains/EX/spec.md",
        "domains/EX/spec.md",
        "domains/EX/spec.md",
        "domains/EX/assumptions.md"
      ],
      "top5_similarities": [
        0.5483,
        0.5451,
        0.5409,
        0.537,
        0.6559
      ],
      "fact_recall": 1.0,
      "fact_hits": [
        "EXTRT",
        "Interventions",
        "protocol-specified"
      ],
      "fact_misses": [],
      "answer_preview": "## EX（Exposure）域的用途\n\nEX（Exposure）域用于表示**方案规定的试验治疗（protocol-specified study treatment）的暴露数据**。它通常是一个衍生数据集（derived dataset），记录受试者在恒定给药间隔（constant-dosing interval）内接受的试验药物信息。\n\n**关键用途说明：**\n- 包括但不限于安慰剂、阳性对照药和研究产品 [Source: domains/EX/assumptions.md item_1a]\n- 非方案规定的治疗应放在 CM（伴随用药）或其他 Interventions 域 [Source: domains/EX/assumptions.md item_1a]\n- 所有包含方案规定试验治疗的研究**必须**提交 EX 域 [Source: domains/EX/assumptions.md item_1c]\n- 收集的暴露数据点应放在 EC（Exposure as Collected）域，EX 与 EC 之间的关系可通过 RELREC 描述 [Source: domains/EX/assumptions.md item_5]\n- EX 属于 **Interventions** 观察类 [Source: domains/EX/spec.md Related Domains]\n\n",
      "usage": {
        "prompt_tokens": 13774,
        "completion_tokens": 516,
        "total_tokens": 14290
      },
      "model": "deepseek/deepseek-chat",
      "answer": "## EX（Exposure）域的用途\n\nEX（Exposure）域用于表示**方案规定的试验治疗（protocol-specified study treatment）的暴露数据**。它通常是一个衍生数据集（derived dataset），记录受试者在恒定给药间隔（constant-dosing interval）内接受的试验药物信息。\n\n**关键用途说明：**\n- 包括但不限于安慰剂、阳性对照药和研究产品 [Source: domains/EX/assumptions.md item_1a]\n- 非方案规定的治疗应放在 CM（伴随用药）或其他 Interventions 域 [Source: domains/EX/assumptions.md item_1a]\n- 所有包含方案规定试验治疗的研究**必须**提交 EX 域 [Source: domains/EX/assumptions.md item_1c]\n- 收集的暴露数据点应放在 EC（Exposure as Collected）域，EX 与 EC 之间的关系可通过 RELREC 描述 [Source: domains/EX/assumptions.md item_5]\n- EX 属于 **Interventions** 观察类 [Source: domains/EX/spec.md Related Domains]\n\n---\n\n## EXTRT（Name of Treatment）变量定义\n\n| 属性 | 值 |\n|------|-----|\n| **Label** | Name of Treatment |\n| **Type** | Char（字符型） |\n| **Role** | Topic（主题变量） |\n| **Core** | Req（必需） |\n| **Controlled Terms** | 无（自由文本） |\n\n[Source: VARIABLE_INDEX.md EX section]\n\n**CDISC 使用规则：**\n- EXTRT 是**主题变量（Topic variable）**，必须填写且必须有值 [Source: domains/EX/assumptions.md item_2a]\n- EXTRT **只能包含治疗名称**，不得包含剂量、剂型或其他限定信息 [Source: domains/EX/assumptions.md item_2a]\n- 例如：\"ASPIRIN 100MG TABLET\" 不是有效的 EXTRT 值，应拆分为：\n  - EXTRT = \"ASPIRIN\"\n  - EXDOSE = \"100\"\n  - EXDOSU = \"mg\"\n  - EXDOSFRM = \"TABLET\" [Source: domains/EX/assumptions.md item_2a]\n- 安慰剂应表示为 EXTRT = \"PLACEBO\"，EXDOSE = \"0\" [Source: domains/EX/assumptions.md item_2b]",
      "elapsed_s": 5.62
    },
    {
      "id": "q25",
      "category": "single_domain",
      "question": "In the MH (Medical History) domain, what is the role of MHTERM and what assumptions guide medical history data collection?",
      "source_recall": 1.0,
      "source_hits": [
        "domains/MH/assumptions.md"
      ],
      "source_misses": [],
      "top5_sources": [
        "domains/MH/spec.md",
        "domains/MH/spec.md",
        "domains/MH/spec.md",
        "domains/MH/spec.md",
        "domains/MH/assumptions.md"
      ],
      "top5_similarities": [
        0.6764,
        0.6118,
        0.5939,
        0.5859,
        0.7369
      ],
      "fact_recall": 1.0,
      "fact_hits": [
        "MHTERM",
        "Topic",
        "Verbatim"
      ],
      "fact_misses": [],
      "answer_preview": "## MH 域中 MHTERM 的角色与医学史数据收集假设\n\n### MHTERM 的角色\n\n**MHTERM**（Reported Term for the Medical History）是 MH 域的 **Topic** 变量，**Core** 为 **Req**（必需），**Type** 为 **Char**（字符型）。它记录收集到的医学状况或事件的原始术语（verbatim term），或者是用于收集一组状况/事件发生信息的预设术语。MHTERM 是必需变量，必须始终有值。**[Source: domains/MH/spec.md — MHTERM]**\n\n### 医学史数据收集的主要假设\n\n#### 1. 描述与编码（Assumption 2）\n\n- **MHTERM** 捕获 CRF 上收集的原始术语或预设术语。**[Source: domains/MH/assumptions.md — item_2a]**\n- **MHMODIFY**（Perm）用于记录对原始术语的修改（如有）。**[Source: domains/MH/assumptions.md — item_2b]**\n- **MHDECOD**（Perm）填充标准字典中的首选术语（preferred term），字典名称和版本在 Define-XML 中说明。**[Source: domains/MH/a",
      "usage": {
        "prompt_tokens": 14556,
        "completion_tokens": 1140,
        "total_tokens": 15696
      },
      "model": "deepseek/deepseek-chat",
      "answer": "## MH 域中 MHTERM 的角色与医学史数据收集假设\n\n### MHTERM 的角色\n\n**MHTERM**（Reported Term for the Medical History）是 MH 域的 **Topic** 变量，**Core** 为 **Req**（必需），**Type** 为 **Char**（字符型）。它记录收集到的医学状况或事件的原始术语（verbatim term），或者是用于收集一组状况/事件发生信息的预设术语。MHTERM 是必需变量，必须始终有值。**[Source: domains/MH/spec.md — MHTERM]**\n\n### 医学史数据收集的主要假设\n\n#### 1. 描述与编码（Assumption 2）\n\n- **MHTERM** 捕获 CRF 上收集的原始术语或预设术语。**[Source: domains/MH/assumptions.md — item_2a]**\n- **MHMODIFY**（Perm）用于记录对原始术语的修改（如有）。**[Source: domains/MH/assumptions.md — item_2b]**\n- **MHDECOD**（Perm）填充标准字典中的首选术语（preferred term），字典名称和版本在 Define-XML 中说明。**[Source: domains/MH/assumptions.md — item_2c]**\n- **MHBODSYS** 填充编码字典中的系统器官分类（SOC），可能与字典标准层级中的主 SOC 不同。**[Source: domains/MH/assumptions.md — item_2d]**\n- 如果 CRF 按预设身体系统收集数据且同时使用标准字典编码，则 **MHDECOD** 和 **MHBODSYS** 来自字典，**MHCAT** 和 **MHSCAT** 用于预设的身体系统分类。**[Source: domains/MH/assumptions.md — item_2e]**\n\n#### 2. 额外分类与分组（Assumption 3）\n\n- **MHCAT** 和 **MHSCAT** 可填充赞助商预定义的医学史事件分类（通常来自 CRF）。MHBODSYS 来自编码系统，而 MHCAT 是研究者记录时分配的类别，两者可能不同。**[Source: domains/MH/assumptions.md — item_3a]**\n- 不应将所有记录归入一个通用类别（如\"Medical Medical History\"），因为这与域代码信息重复。**[Source: domains/MH/assumptions.md — item_3a-i]**\n- **MHGRPID** 用于在受试者级别将 MH 域内的不同记录关联成块，不应替代 MHCAT 或 MHSCAT。**[Source: domains/MH/assumptions.md — item_3b]**\n\n#### 3. 预设术语与事件存在性（Assumption 4）\n\n- 医学史信息通常通过两种方式收集：**自由文本记录**或**预设术语列表**。**[Source: domains/MH/assumptions.md — item_4a]**\n- **MHPRESP** 和 **MHOCCUR** 配合使用：MHPRESP=\"Y\" 表示术语是预设的；MHOCCUR=\"Y\" 表示事件发生，\"N\" 表示未发生。**[Source: domains/MH/assumptions.md — item_4a, 4b]**\n- 自由文本报告的事件，MHPRESP 和 MHOCCUR 应为空。如果所有医学史事件均以自由文本收集，可省略这两个变量。**[Source: domains/MH/assumptions.md — item_4c]**\n- **MHSTAT** 和 **MHREASND** 用于预设问题但未收集到响应的情况。**[Source: domains/MH/assumptions.md — item_4d]**\n\n**四种情况的处理规则**：\n\n| 情况 | MHPRESP | MHOCCUR | MHSTAT |\n|------|---------|---------|--------|\n| 自发报告的事件发生 | （空） | （空） | （空） |\n| 预设事件发生 | Y | Y | （空） |\n| 预设事件未发生 | Y | N | （空） |\n| 预设事件无响应 | Y | （空） | NOT DONE |\n\n**[Source: domains/MH/assumptions.md — item_4d]**\n\n- 当医学史以自由文本收集时，如果数据管理系统录入\"无医学史\"记录，**不应**在 MH 数据集中包含表示\"无事件\"的记录。**[Source: domains/MH/assumptions.md — item_4e]**\n\n### 受控术语引用\n\nMH 域中使用的受控术语包括：\n- **MHEVDTYP**：Medical History Event Date Type（C124301）**[Source: domains/MH/spec.md — Controlled Terminology]**\n- **MHENRF, MHENRTPT**：Relation to Reference Period（C66728）**[Source: domains/MH/spec.md — Controlled Terminology]**\n- **MHPRESP, MHOCCUR**：No Yes Response（C66742）**[Source: domains/MH/spec.md — Controlled Terminology]**\n- **MHSTAT**：Not Done（C66789）**[Source: domains/MH/spec.md — Controlled Terminology]**\n- **EPOCH**：Epoch（C99079）**[Source: domains/MH/spec.md — Controlled Terminology]**",
      "elapsed_s": 10.65
    },
    {
      "id": "q26",
      "category": "single_domain",
      "question": "Describe the EG (ECG Test Results) domain structure and the EGTESTCD variable, including its controlled terminology codelist codes.",
      "source_recall": 1.0,
      "source_hits": [
        "domains/EG/spec.md"
      ],
      "source_misses": [],
      "top5_sources": [
        "domains/EG/spec.md",
        "terminology/core/eg_part3.md",
        "terminology/core/eg_part2.md",
        "domains/EG/spec.md",
        "VARIABLE_INDEX.md"
      ],
      "top5_similarities": [
        0.7263,
        0.5879,
        0.5242,
        0.7253,
        0.6737
      ],
      "fact_recall": 1.0,
      "fact_hits": [
        "EGTESTCD",
        "Findings",
        "C71153"
      ],
      "fact_misses": [],
      "answer_preview": "## EG（ECG Test Results）域结构及 EGTESTCD 变量\n\n### EG 域概述\n\nEG（ECG Test Results）域属于 **Findings（发现）** 观察类，用于存储心电图测试结果数据。该域包含约 35 个变量，涵盖标识符、主题变量、分组变量、结果变量、记录限定符和时间变量等。\n\n### EG 域核心变量结构\n\n| 变量 | Label | Type | Role | Core |\n|------|-------|------|------|------|\n| STUDYID | Study Identifier | Char | Identifier | Req |\n| DOMAIN | Domain Abbreviation | Char | Identifier | Req |\n| USUBJID | Unique Subject Identifier | Char | Identifier | Req |\n| EGSEQ | Sequence Number | Num | Identifier | Req |\n| EGTESTCD | ECG Test or Examination Short Name | Char | Topic | Req |\n| EGTEST | ECG Test or Examination Name | Ch",
      "usage": {
        "prompt_tokens": 16463,
        "completion_tokens": 1551,
        "total_tokens": 18014
      },
      "model": "deepseek/deepseek-chat",
      "answer": "## EG（ECG Test Results）域结构及 EGTESTCD 变量\n\n### EG 域概述\n\nEG（ECG Test Results）域属于 **Findings（发现）** 观察类，用于存储心电图测试结果数据。该域包含约 35 个变量，涵盖标识符、主题变量、分组变量、结果变量、记录限定符和时间变量等。\n\n### EG 域核心变量结构\n\n| 变量 | Label | Type | Role | Core |\n|------|-------|------|------|------|\n| STUDYID | Study Identifier | Char | Identifier | Req |\n| DOMAIN | Domain Abbreviation | Char | Identifier | Req |\n| USUBJID | Unique Subject Identifier | Char | Identifier | Req |\n| EGSEQ | Sequence Number | Num | Identifier | Req |\n| EGTESTCD | ECG Test or Examination Short Name | Char | Topic | Req |\n| EGTEST | ECG Test or Examination Name | Char | Synonym Qualifier | Req |\n| EGCAT | Category for ECG | Char | Grouping Qualifier | Perm |\n| EGPOS | ECG Position of Subject | Char | Record Qualifier | Perm |\n| EGORRES | Result or Finding in Original Units | Char | Result Qualifier | Exp |\n| EGSTRESC | Character Result/Finding in Std Format | Char | Result Qualifier | Exp |\n| EGSTRESN | Numeric Result/Finding in Standard Units | Num | Result Qualifier | Perm |\n| EGSTAT | Completion Status | Char | Record Qualifier | Perm |\n| EGMETHOD | Method of Test or Examination | Char | Record Qualifier | Perm |\n| EGLEAD | Lead Location Used for Measurement | Char | Record Qualifier | Perm |\n| EGCLSIG | Clinically Significant, Collected | Char | Record Qualifier | Perm |\n| EGDTC | Date/Time of ECG | Char | Timing | Exp |\n\n**[Source: domains/EG/spec.md]**\n\n### EGTESTCD 变量定义\n\n- **Label:** ECG Test or Examination Short Name\n- **Type:** Char（字符型）\n- **Role:** Topic（主题变量）\n- **Core:** Req（必需）\n- **CDISC Notes:** 测试或检查的短名称，对应 EGTEST 中的描述。EGTESTCD 的值不能超过 8 个字符，不能以数字开头（如 \"1TEST\" 无效），且只能包含字母、数字和下划线。示例：\"PRAG\"、\"QRSAG\"。\n\n**[Source: domains/EG/spec.md — EGTESTCD]**\n\n### EGTESTCD 的受控术语（Controlled Terminology）\n\nEGTESTCD 引用 **两个独立的 codelist**，分别对应常规 10 秒 ECG 和 Holter 监测：\n\n| Codelist Code | Codelist Name | 适用范围 |\n|--------------|---------------|---------|\n| **C71153** | ECG Test Code | 常规 10 秒 ECG 测试代码 |\n| **C120523** | Holter ECG Test Code | Holter 监测 ECG 测试代码 |\n\n**[Source: domains/EG/spec.md — EGTESTCD; domains/EG/assumptions.md — item_2]**\n\n#### C71153 — ECG Test Code（常规 ECG）\n\n该 codelist 包含常规 10 秒 ECG 的标准测试代码，如心率、间期测量、轴和电压等。具体值列表见 terminology 文件。\n\n#### C120523 — Holter ECG Test Code（Holter 监测）\n\n该 codelist 为可扩展（Extensible: Yes），包含以下标准值：\n\n| Code | Submission Value | 描述 |\n|------|-----------------|------|\n| C111131 | AVCOND | Atrioventricular Conduction（房室传导） |\n| C111132 | AXISVOLT | Axis and Voltage（轴和电压） |\n| C111155 | CHYPTENL | Chamber Hypertrophy or Enlargement（腔室肥大或扩大） |\n| C117761 | EGCOMP | Comparison to a Prior ECG（与既往 ECG 比较） |\n| C41255 | INTP | Interpretation（整体解读） |\n| C111238 | IVTIACD | Intraventricular-Intraatrial Conduction（室内-房内传导） |\n| C111280 | MI | Myocardial Infarction（心肌梗死） |\n| C111285 | PACEMAKR | Pacemaker（起搏器） |\n| C111307 | RHYNOS | Rhythm Not Otherwise Specified（未特指节律） |\n| C111312 | SNRARRY | Sinus Node Rhythms and Arrhythmias（窦性节律和心律失常） |\n| C111320 | SPRARRY | Supraventricular Arrhythmias（室上性心律失常） |\n| C111321 | SPRTARRY | Supraventricular Tachyarrhythmias（室上性快速性心律失常） |\n| C111363 | STSTWUW | ST Segment, T wave, and U wave（ST 段、T 波和 U 波） |\n| C117807 | TECHQUAL | Technical Quality（技术质量） |\n| C111330 | VTARRY | Ventricular Arrhythmias（室性心律失常） |\n| C111331 | VTTARRY | Ventricular Tachyarrhythmias（室性快速性心律失常） |\n\n**[Source: terminology/core/eg_part3.md — Holter ECG Test Code (C120523)]**\n\n### 关键假设\n\n1. **两个独立的 codelist**：常规 10 秒 ECG 和 Holter 监测使用不同的测试代码和结果 codelist。**[Source: domains/EG/assumptions.md — item_2]**\n\n2. **EGCAT 分组**：可使用 EGCAT 对 ECG 观察进行分类，如 \"MEASUREMENT\"、\"FINDING\"、\"INTERVAL\"。**[Source: domains/EG/spec.md — EGCAT]**\n\n3. **EGMETHOD**：记录 ECG 测试方法，受控术语为 C71151（ECG Test Method），如 \"12-LEAD STANDARD\"。**[Source: domains/EG/spec.md — EGMETHOD]**\n\n4. **与 PR 域关联**：Holter 监测数据可通过 PRLNKID/EGLNKID 与 PR（Procedures）域关联，使用 RELREC 表示一对多关系。**[Source: domains/PR/examples.md — Example 2]**\n\n### 数据示例\n\nEG 域中 EGTESTCD 的典型使用示例：\n\n| EGTESTCD | EGTEST | EGCAT | 说明 |\n|----------|--------|-------|------|\n| EGHRMN | ECG Mean Heart Rate | MEASUREMENT | 平均心率测量 |\n| PRAG | PR Interval, Aggregate | INTERVAL | PR 间期聚合测量 |\n| QRSAG | QRS Duration, Aggregate | INTERVAL | QRS 时限聚合测量 |\n| INTP | Interpretation | — | ECG 整体解读 |\n| SPRATRY | Supraventricular Tachyarrhythmias | FINDING | 室上性快速性心律失常发现 |\n| TECHQUAL | Technical Quality | FINDING | 技术质量评估 |\n\n**[Source: domains/EG/examples.md — Example 1]**",
      "elapsed_s": 13.39
    },
    {
      "id": "q27",
      "category": "single_domain",
      "question": "What is the IE (Inclusion/Exclusion) domain and what is the role and maximum length of the IETEST variable?",
      "source_recall": 1.0,
      "source_hits": [
        "domains/IE/spec.md"
      ],
      "source_misses": [],
      "top5_sources": [
        "domains/IE/spec.md",
        "domains/IE/spec.md",
        "domains/IE/spec.md",
        "domains/IE/spec.md",
        "domains/TI/spec.md"
      ],
      "top5_similarities": [
        0.6769,
        0.607,
        0.5335,
        0.5254,
        0.7161
      ],
      "fact_recall": 1.0,
      "fact_hits": [
        "IETEST",
        "200",
        "Synonym Qualifier"
      ],
      "fact_misses": [],
      "answer_preview": "## IE 域（Inclusion/Exclusion Criteria Not Met）\n\n**IE** 域属于 **Findings** 观察类，用于收集**受试者未满足**的入选/排除标准（即入选/排除标准的例外情况）。该域不收集所有标准的应答，仅记录受试者不符合的标准。完整的入选/排除标准列表请参见 TI 域（Trial Inclusion/Exclusion Criteria）。[Source: domains/IE/assumptions.md — item_1]\n\n---\n\n## IETEST 变量定义\n\n| 属性 | 值 |\n|------|-----|\n| **Label** | Inclusion/Exclusion Criterion |\n| **Type** | Char |\n| **Role** | Synonym Qualifier |\n| **Core** | Req |\n| **Controlled Terms** | 无（自由文本） |\n| **最大长度** | **200 个字符** |\n\n[Source: domains/IE/spec.md — IETEST]\n\n### CDISC Notes\n\nIETEST 用于存储入选/排除标准的**逐字描述**（verbatim description）。如果标准文本不超过 200 个字符，直接放入 I",
      "usage": {
        "prompt_tokens": 9955,
        "completion_tokens": 284,
        "total_tokens": 10239
      },
      "model": "deepseek/deepseek-chat",
      "answer": "## IE 域（Inclusion/Exclusion Criteria Not Met）\n\n**IE** 域属于 **Findings** 观察类，用于收集**受试者未满足**的入选/排除标准（即入选/排除标准的例外情况）。该域不收集所有标准的应答，仅记录受试者不符合的标准。完整的入选/排除标准列表请参见 TI 域（Trial Inclusion/Exclusion Criteria）。[Source: domains/IE/assumptions.md — item_1]\n\n---\n\n## IETEST 变量定义\n\n| 属性 | 值 |\n|------|-----|\n| **Label** | Inclusion/Exclusion Criterion |\n| **Type** | Char |\n| **Role** | Synonym Qualifier |\n| **Core** | Req |\n| **Controlled Terms** | 无（自由文本） |\n| **最大长度** | **200 个字符** |\n\n[Source: domains/IE/spec.md — IETEST]\n\n### CDISC Notes\n\nIETEST 用于存储入选/排除标准的**逐字描述**（verbatim description）。如果标准文本不超过 200 个字符，直接放入 IETEST；如果超过 200 个字符，则在 IETEST 中放入有意义的摘要文本，并将完整文本记录在研究元数据中。[Source: domains/IE/assumptions.md — item_3]",
      "elapsed_s": 3.97
    },
    {
      "id": "q06",
      "category": "cross_domain",
      "question": "What is SUPPQUAL and when should supplemental qualifiers be used instead of adding variables to a domain?",
      "source_recall": 1.0,
      "source_hits": [
        "domains/SUPPQUAL/spec.md"
      ],
      "source_misses": [],
      "top5_sources": [
        "domains/SUPPQUAL/spec.md",
        "domains/SUPPQUAL/spec.md",
        "domains/SUPPQUAL/spec.md",
        "domains/SUPPQUAL/spec.md",
        "domains/SUPPQUAL/assumptions.md"
      ],
      "top5_similarities": [
        0.5533,
        0.4872,
        0.4705,
        0.4564,
        0.7409
      ],
      "fact_recall": 1.0,
      "fact_hits": [
        "QNAM",
        "QVAL",
        "non-standard"
      ],
      "fact_misses": [],
      "answer_preview": "# SUPPQUAL 概述与使用场景\n\n## 什么是 SUPPQUAL？\n\n**SUPPQUAL**（Supplemental Qualifiers）是一个特殊用途的关系数据集模型，用于捕获**非标准变量（NSVs, Non-Standard Variables）**，并将其与父域中的记录关联起来。SDTM 不允许在标准域中新增变量，因此所有赞助商自定义的变量都必须通过 SUPP-- 数据集来提交。\n\n**[Source: domains/SUPPQUAL/assumptions.md]**\n\nSUPPQUAL 数据集的结构如下（每个 SUPP-- 数据集对应一个父域）：\n\n| 变量 | 标签 | 类型 | 角色 | Core |\n|------|------|------|------|------|\n| STUDYID | Study Identifier | Char | Identifier | Req |\n| RDOMAIN | Related Domain Abbreviation | Char | Identifier | Req |\n| USUBJID | Unique Subject Identifier | Char | Identifier | Req |\n| IDVAR | Identifying Variable | Char | Identifier |",
      "usage": {
        "prompt_tokens": 15840,
        "completion_tokens": 966,
        "total_tokens": 16806
      },
      "model": "deepseek/deepseek-chat",
      "answer": "# SUPPQUAL 概述与使用场景\n\n## 什么是 SUPPQUAL？\n\n**SUPPQUAL**（Supplemental Qualifiers）是一个特殊用途的关系数据集模型，用于捕获**非标准变量（NSVs, Non-Standard Variables）**，并将其与父域中的记录关联起来。SDTM 不允许在标准域中新增变量，因此所有赞助商自定义的变量都必须通过 SUPP-- 数据集来提交。\n\n**[Source: domains/SUPPQUAL/assumptions.md]**\n\nSUPPQUAL 数据集的结构如下（每个 SUPP-- 数据集对应一个父域）：\n\n| 变量 | 标签 | 类型 | 角色 | Core |\n|------|------|------|------|------|\n| STUDYID | Study Identifier | Char | Identifier | Req |\n| RDOMAIN | Related Domain Abbreviation | Char | Identifier | Req |\n| USUBJID | Unique Subject Identifier | Char | Identifier | Req |\n| IDVAR | Identifying Variable | Char | Identifier | Exp |\n| IDVARVAL | Identifying Variable Value | Char | Identifier | Exp |\n| QNAM | Qualifier Variable Name | Char | Topic | Req |\n| QLABEL | Qualifier Variable Label | Char | Synonym Qualifier | Req |\n| QVAL | Data Value | Char | Result Qualifier | Req |\n| QORIG | Origin | Char | Record Qualifier | Req |\n| QEVAL | Evaluator | Char | Record Qualifier | Exp |\n\n**[Source: model/06_relationship_datasets.md]**\n\n## 何时使用 SUPPQUAL？\n\n### 应该使用 SUPPQUAL 的场景：\n\n1. **赞助商自定义的非标准变量** — 当标准 SDTM 域中没有对应的变量来容纳赞助商收集的额外数据时，应使用 SUPP-- 来存储这些数据。\n\n2. **主观评估/归因数据** — 当需要对某个观察进行主观分类或解释时（例如，由不同评估者做出的判断），应使用 SUPP--。例如，独立裁定委员会对不良事件严重程度的评估。\n\n   **[Source: chapters/ch04_general_assumptions.md §4.5.4]**\n\n3. **长文本字符串（>200字符）** — 当标准域变量的值超过 200 个字符时，前 200 个字符存储在父域变量中，后续每 200 个字符存储在 SUPP-- 的一条记录中。\n\n   **[Source: chapters/ch04_general_assumptions.md §4.5.3.2]**\n\n4. **次要评估** — 当存在主要和次要评估时，主要评估数据放入标准域，次要评估数据放入 SUPP--。\n\n   **[Source: chapters/ch04_general_assumptions.md §4.5.4]**\n\n### 不应使用 SUPPQUAL 的场景：\n\n1. **受试者级别的客观数据** — 如果数据适合放入 Subject Characteristics (SC) 域，则不应放入 SUPP--。\n\n2. **可作为额外测试代码和结果的 Findings 解释** — 例如，心电图解释应作为额外的测试记录（如 EGTESTCD = \"INTP\"），而不是 SUPP--。\n\n3. **评论/备注** — 与记录相关的评论应放入 Comments (CO) 特殊用途域。\n\n4. **与父域记录无直接关系的数据** — 此类数据应放入独立的通用观察类域或特殊用途域。\n\n**[Source: chapters/ch08_relationships.md §8.4.4]**\n\n## 关键规则\n\n- SUPP-- 数据集通过 `STUDYID`、`RDOMAIN`、`USUBJID` 和 `IDVAR`/`IDVARVAL` 与父域记录关联。对于 DM 域，`IDVAR` 和 `IDVARVAL` 均为空，因为 `STUDYID`、`RDOMAIN` 和 `USUBJID` 足以唯一标识记录。\n\n- **所有 SUPP-- 记录必须有 QVAL 值**。如果转置源变量产生空值，赞助商必须在提交前删除这些记录。\n\n- 每个域对应一个独立的 SUPP-- 数据集（如 `suppae.xpt`、`suppcm.xpt`），不再使用单一的 SUPPQUAL 数据集。\n\n- `QNAM` 不能超过 8 个字符，不能以数字开头，只能包含字母、数字和下划线。\n\n- `QLABEL` 不能超过 40 个字符。\n\n**[Source: chapters/ch08_relationships.md §8.4.1, domains/SUPPQUAL/assumptions.md]**",
      "elapsed_s": 10.89
    },
    {
      "id": "q07",
      "category": "cross_domain",
      "question": "Which SDTM domains use the EPOCH variable and what is its purpose?",
      "source_recall": 1.0,
      "source_hits": [
        "VARIABLE_INDEX.md"
      ],
      "source_misses": [],
      "top5_sources": [
        "VARIABLE_INDEX.md",
        "chapters/ch04_general_assumptions.md",
        "model/01_concepts_and_terms.md",
        "domains/SR/spec.md",
        "chapters/ch02_fundamentals.md"
      ],
      "top5_similarities": [
        0.5124,
        0.7004,
        11.8134,
        0.6837,
        11.0386
      ],
      "fact_recall": 1.0,
      "fact_hits": [
        "EPOCH",
        "Timing"
      ],
      "fact_misses": [],
      "answer_preview": "# SDTM 中使用 EPOCH 变量的域及其用途\n\n## EPOCH 变量定义\n\n| 属性 | 内容 |\n|------|------|\n| **Label** | Epoch |\n| **Type** | Char |\n| **Controlled Terms** | C99079 |\n| **Role** | Timing |\n| **Core** | Perm (Permissible) |\n| **CDISC Notes** | 与观察日期/时间关联的时期。示例：\"SCREENING\"、\"TREATMENT\"、\"FOLLOW-UP\" |\n\n**[Source:** domains/SR/spec.md — EPOCH; domains/FA/spec.md — EPOCH; domains/CP/spec.md — EPOCH; domains/PP/spec.md — EPOCH; domains/PC/spec.md — EPOCH**]**\n\n---\n\n## 使用 EPOCH 的域\n\nEPOCH 是一个**通用 Timing 变量**，可在所有基于三大观察类（Interventions、Events、Findings）的域中使用。以下列出已确认使用 EPOCH 的域：\n\n### Findings 类域\n- **SR** (Skin Response) — EPOCH",
      "usage": {
        "prompt_tokens": 14677,
        "completion_tokens": 1007,
        "total_tokens": 15684
      },
      "model": "deepseek/deepseek-chat",
      "answer": "# SDTM 中使用 EPOCH 变量的域及其用途\n\n## EPOCH 变量定义\n\n| 属性 | 内容 |\n|------|------|\n| **Label** | Epoch |\n| **Type** | Char |\n| **Controlled Terms** | C99079 |\n| **Role** | Timing |\n| **Core** | Perm (Permissible) |\n| **CDISC Notes** | 与观察日期/时间关联的时期。示例：\"SCREENING\"、\"TREATMENT\"、\"FOLLOW-UP\" |\n\n**[Source:** domains/SR/spec.md — EPOCH; domains/FA/spec.md — EPOCH; domains/CP/spec.md — EPOCH; domains/PP/spec.md — EPOCH; domains/PC/spec.md — EPOCH**]**\n\n---\n\n## 使用 EPOCH 的域\n\nEPOCH 是一个**通用 Timing 变量**，可在所有基于三大观察类（Interventions、Events、Findings）的域中使用。以下列出已确认使用 EPOCH 的域：\n\n### Findings 类域\n- **SR** (Skin Response) — EPOCH Order: 32\n- **FA** (Findings About Events or Interventions) — EPOCH Order: 28\n- **CP** (Cell Phenotype Findings) — EPOCH Order: 55\n- **PP** (Pharmacokinetics Parameters) — EPOCH Order: 20\n- **PC** (Pharmacokinetics Concentrations) — EPOCH Order: 31\n\n**[Source:** domains/SR/spec.md; domains/FA/spec.md; domains/CP/spec.md; domains/PP/spec.md; domains/PC/spec.md**]**\n\n### 其他域\n根据通用假设，EPOCH 也可用于其他 Interventions 和 Events 类域，例如：\n- **EX** (Exposure) — 在 TA 假设中被引用\n- **DS** (Disposition) — 在 TA 假设中被引用\n\n**[Source:** domains/TA/assumptions.md — item 12**]**\n\n---\n\n## EPOCH 的用途和赋值规则\n\n### 1. 基本用途\nEPOCH 是一个**研究设计构造**，用于将观察分配到试验的特定时期（如筛选期、治疗期、随访期）。\n\n**[Source:** chapters/ch04_general_assumptions.md — §4.1.3.1**]**\n\n### 2. 赋值依据\n\n| 观察类 | 赋值依据 |\n|--------|---------|\n| **Findings 类** | 基于 `--DTC`（检测日期/时间；对于标本检测，为标本采集日期/时间） |\n| **Interventions 类** | 基于 `--STDTC`（干预开始日期/时间） |\n| **Events 类** | 基于 `--STDTC`（事件开始日期/时间） |\n\n**例外情况：** 如果某个 Findings 基于跨时期的间隔标本采集（开始于一个时期但结束于另一个时期），则 `--ENDTC` 可能是更合适的 EPOCH 赋值依据。\n\n**[Source:** chapters/ch04_general_assumptions.md — §4.1.3.1**]**\n\n### 3. 关键规则\n\n- **不应推算** EPOCH 值，而应尽可能基于 CRF 说明和结构来赋值\n- 如果无法确定观察所属的时期，则 EPOCH **应为空**\n- 对于**受试者参与研究之前**开始的干预、事件或进行的检测，EPOCH **应为空**（参与研究包括筛选期，通常发生在参考开始日期 RFSTDTC 之前）\n- 不同时期的 EPOCH 值**必须不同**（例如，在交叉试验中，3 个治疗时期不能都命名为 \"TREATMENT\"）\n- EPOCH 的赋值方法可在 Define-XML 文档中描述\n\n**[Source:** chapters/ch04_general_assumptions.md — §4.1.3.1; domains/TA/assumptions.md — item 12**]**\n\n### 4. 受控术语\nEPOCH 使用受控术语 **C99079**，包含如 \"SCREENING\"、\"TREATMENT\"、\"FOLLOW-UP\" 等值。\n\n**[Source:** domains/SR/spec.md — EPOCH**]**\n\n---\n\n## 总结\n\nEPOCH 是一个**可选的 Timing 变量**（Core: Permissible），可在所有基于三大观察类的域中使用，用于将观察记录关联到试验设计中的特定时期。其赋值应基于观察的日期/时间，且不能推算。对于研究开始前的观察，EPOCH 应为空。",
      "elapsed_s": 10.86
    },
    {
      "id": "q08",
      "category": "cross_domain",
      "question": "How does USUBJID serve as a linking key across SDTM domains?",
      "source_recall": 1.0,
      "source_hits": [
        "domains/DM/spec.md"
      ],
      "source_misses": [],
      "top5_sources": [
        "VARIABLE_INDEX.md",
        "domains/SUPPQUAL/spec.md",
        "chapters/ch04_general_assumptions.md",
        "domains/DM/spec.md",
        "chapters/ch03_submitting_data.md"
      ],
      "top5_similarities": [
        0.4878,
        0.7076,
        10.4468,
        0.6924,
        9.9812
      ],
      "fact_recall": 1.0,
      "fact_hits": [
        "USUBJID",
        "Identifier",
        "unique"
      ],
      "fact_misses": [],
      "answer_preview": "Based on the retrieved context, **USUBJID (Unique Subject Identifier)** serves as a fundamental linking key across SDTM domains in the following ways:\n\n## 1. Core Identifier Role\n\nUSUBJID is defined as an **Identifier** variable with a **Core** of **Required** (Req) across virtually all subject-level domains. Its purpose is to \"uniquely identify a subject across all studies for all applications or submissions involving the product\" **[Source: domains/DM/spec.md]**.\n\n## 2. Primary Key in Subject-Level Datasets\n\nUSUBJID forms part of the **natural key** for most subject-level datasets. For examp",
      "usage": {
        "prompt_tokens": 14172,
        "completion_tokens": 573,
        "total_tokens": 14745
      },
      "model": "deepseek/deepseek-chat",
      "answer": "Based on the retrieved context, **USUBJID (Unique Subject Identifier)** serves as a fundamental linking key across SDTM domains in the following ways:\n\n## 1. Core Identifier Role\n\nUSUBJID is defined as an **Identifier** variable with a **Core** of **Required** (Req) across virtually all subject-level domains. Its purpose is to \"uniquely identify a subject across all studies for all applications or submissions involving the product\" **[Source: domains/DM/spec.md]**.\n\n## 2. Primary Key in Subject-Level Datasets\n\nUSUBJID forms part of the **natural key** for most subject-level datasets. For example:\n\n| Dataset | Key Structure |\n|---------|---------------|\n| DM (Demographics) | STUDYID, USUBJID |\n| AE (Adverse Events) | STUDYID, USUBJID, AESEQ |\n| CM (Concomitant Medications) | STUDYID, USUBJID, CMSEQ |\n| LB (Lab Results) | STUDYID, USUBJID, LBSEQ |\n| VS (Vital Signs) | STUDYID, USUBJID, VSSEQ |\n\n**[Source: chapters/ch03_submitting_data.md]**\n\n## 3. Linking Across Domains\n\nUSUBJID enables **cross-domain record linkage** by being present in every subject-level domain. This allows:\n- **Within-subject analysis**: All records for a given subject across AE, CM, LB, VS, etc. can be joined using USUBJID\n- **Relational integrity**: USUBJID in relationship datasets (RELREC, RELSPEC, RELSUB) identifies the subject context for the relationship **[Source: domains/RELSPEC/spec.md, domains/RELSUB/spec.md]**\n\n## 4. Special Cases\n\n- **Associated Persons (AP) domains**: Use **APID** instead of USUBJID, with **RSUBJID** linking back to the related subject's USUBJID **[Source: model/04_associated_persons.md]**\n- **Supplemental Qualifiers (SUPP--)**: USUBJID identifies the parent record to which the supplemental qualifier belongs **[Source: domains/SUPPQUAL/spec.md]**\n- **Relationship datasets (RELREC)**: For dataset-to-dataset relationships (e.g., TU↔TR), USUBJID may be **null** when the relationship is at the dataset level rather than the subject level **[Source: chapters/ch08_relationships.md]**\n\n## 5. Construction\n\nUSUBJID \"could be a compound identifier formed by concatenating STUDYID-SITEID-SUBJID\" to ensure global uniqueness across studies **[Source: domains/DM/spec.md]**.",
      "elapsed_s": 7.74
    },
    {
      "id": "q09",
      "category": "cross_domain",
      "question": "How are adverse events linked to concomitant medications using RELREC?",
      "source_recall": 1.0,
      "source_hits": [
        "domains/RELREC/spec.md"
      ],
      "source_misses": [],
      "top5_sources": [
        "domains/RELREC/spec.md",
        "domains/CM/spec.md",
        "domains/AE/spec.md",
        "chapters/ch08_relationships.md",
        "domains/RELREC/examples.md"
      ],
      "top5_similarities": [
        0.4612,
        0.5328,
        0.5185,
        0.6173,
        0.583
      ],
      "fact_recall": 1.0,
      "fact_hits": [
        "RELREC",
        "IDVAR",
        "IDVARVAL"
      ],
      "fact_misses": [],
      "answer_preview": "## 不良事件与合并用药通过 RELREC 的关联方式\n\n在 SDTM 中，不良事件（AE）与合并用药（CM）通过 **RELREC（Related Records）** 数据集进行关联。具体机制如下：\n\n### 1. 关联机制\n\n当不良事件导致了合并用药（即因 AE 而给予的治疗）时，需要在 RELREC 数据集中创建记录来建立这种关系。每个关联通过一个唯一的 **RELID** 值来标识，同一 USUBJID 下具有相同 RELID 的所有记录被视为相互关联 **[Source: domains/RELREC/spec.md]**。\n\n### 2. 关键变量\n\nRELREC 数据集使用以下变量来标识关联的记录：\n\n- **STUDYID** — 研究标识\n- **RDOMAIN** — 被关联记录的域代码（如 \"AE\" 或 \"CM\"）\n- **USUBJID** — 受试者标识\n- **IDVAR** — 用于标识记录的变量名（如 AESEQ、CMSEQ）\n- **IDVARVAL** — IDVAR 对应的值\n- **RELID** — 关系标识符，同一关系组内的所有记录共享相同值\n\n### 3. 数据示例\n\n以下示例展示了一个 AE 记录与两个合并用药记录的关联 **[Source: domains/RELREC/examples.md]**：\n\n| STUDYID | R",
      "usage": {
        "prompt_tokens": 16523,
        "completion_tokens": 832,
        "total_tokens": 17355
      },
      "model": "deepseek/deepseek-chat",
      "answer": "## 不良事件与合并用药通过 RELREC 的关联方式\n\n在 SDTM 中，不良事件（AE）与合并用药（CM）通过 **RELREC（Related Records）** 数据集进行关联。具体机制如下：\n\n### 1. 关联机制\n\n当不良事件导致了合并用药（即因 AE 而给予的治疗）时，需要在 RELREC 数据集中创建记录来建立这种关系。每个关联通过一个唯一的 **RELID** 值来标识，同一 USUBJID 下具有相同 RELID 的所有记录被视为相互关联 **[Source: domains/RELREC/spec.md]**。\n\n### 2. 关键变量\n\nRELREC 数据集使用以下变量来标识关联的记录：\n\n- **STUDYID** — 研究标识\n- **RDOMAIN** — 被关联记录的域代码（如 \"AE\" 或 \"CM\"）\n- **USUBJID** — 受试者标识\n- **IDVAR** — 用于标识记录的变量名（如 AESEQ、CMSEQ）\n- **IDVARVAL** — IDVAR 对应的值\n- **RELID** — 关系标识符，同一关系组内的所有记录共享相同值\n\n### 3. 数据示例\n\n以下示例展示了一个 AE 记录与两个合并用药记录的关联 **[Source: domains/RELREC/examples.md]**：\n\n| STUDYID | RDOMAIN | USUBJID | IDVAR | IDVARVAL | RELID |\n|---------|---------|---------|-------|----------|-------|\n| EFC1234 | AE | 123456 | AESEQ | 5 | 1 |\n| EFC1234 | CM | 123456 | CMSEQ | 11 | 1 |\n| EFC1234 | CM | 123456 | CMSEQ | 12 | 1 |\n\n在这个例子中：\n- AE 记录（AESEQ=5）与两个 CM 记录（CMSEQ=11 和 CMSEQ=12）通过 RELID=\"1\" 关联在一起\n- 这表示这两个合并用药是因该不良事件而给予的\n\n### 4. 使用场景\n\n根据 AE 域的假设 **[Source: domains/AE/assumptions.md]**：\n\n> AECONTRT 是一个 Y/N 变量。如果收集了非研究治疗，该治疗的名称和其他信息应记录在适当的 Interventions 域（通常是 CM 或 PR）中，并通过 RELREC 链接到 AE 记录。\n\n这意味着：\n1. **AECONTRT** 变量记录是否因 AE 给予了合并治疗（Y/N）\n2. 如果为 \"Y\"，则具体的治疗信息记录在 CM 或 PR 域\n3. **RELREC** 用于建立 AE 记录与 CM/PR 记录之间的显式关联\n\n### 5. 高效表示方式\n\n如果 CM 域中已使用 **CMGRPID** 对合并用药进行了分组，则 RELREC 中可以使用 CMGRPID 作为 IDVAR，从而减少 RELREC 中的记录数 **[Source: chapters/ch08_relationships.md]**：\n\n| STUDYID | RDOMAIN | USUBJID | IDVAR | IDVARVAL | RELID |\n|---------|---------|---------|-------|----------|-------|\n| EFC1234 | AE | 123456 | AESEQ | 5 | 1 |\n| EFC1234 | CM | 123456 | CMGRPID | COMBO1 | 1 |\n\n这里，CMGRPID=\"COMBO1\" 代表一组合并用药，只需一条 RELREC 记录即可关联整个组合。\n\n### 总结\n\nAE 与 CM 的关联通过 RELREC 数据集实现，使用 RELID 作为关系标识符，通过 IDVAR/IDVARVAL 对指向具体的 AE 和 CM 记录。这种机制适用于因 AE 而给予的合并治疗，以及更复杂的多对多关系场景。",
      "elapsed_s": 9.47
    },
    {
      "id": "q10",
      "category": "cross_domain",
      "question": "In oncology studies, how are the TR (Tumor/Lesion Results) domain and RS (Disease Response) domain linked together, and which specific identifier variables are used for each linkage direction?",
      "source_recall": 1.0,
      "source_hits": [
        "domains/TR/assumptions.md",
        "domains/TR/spec.md"
      ],
      "source_misses": [],
      "top5_sources": [
        "domains/TR/spec.md",
        "domains/RS/spec.md",
        "domains/RS/assumptions.md",
        "domains/TR/assumptions.md",
        "domains/TR/assumptions.md"
      ],
      "top5_similarities": [
        0.6207,
        0.6214,
        0.713,
        0.7055,
        0.6926
      ],
      "fact_recall": 1.0,
      "fact_hits": [
        "TRLNKID",
        "TRLNKGRP"
      ],
      "fact_misses": [],
      "answer_preview": "## TR 域与 RS 域的关联机制\n\n在肿瘤学研究中，**TR（Tumor/Lesion Results）域**和**RS（Disease Response）域**通过 **RELREC 关系数据集**进行关联，使用的特定标识变量是 **TRLNKGRP** 和 **RSLNKGRP**。\n\n### 关联方向与变量\n\n| 关联方向 | 使用的变量 | 说明 |\n|---------|-----------|------|\n| **TR → RS** | **TRLNKGRP** | TR 域中的 `TRLNKGRP` 用于将 TR 记录关联到 RS 域中的响应评估记录。需要创建 RELREC 关系来链接相关数据行，数据集到数据集的链接是最合适的机制。[Source: domains/TR/assumptions.md — item_2] |\n| **RS → TR** | **RSLNKGRP** | RS 域中的 `RSLNKGRP` 用于提供与 Findings 域（如 TR、LB）中记录的链接，这些记录共同构成了 RS 域中的一条响应评估记录。同样需要 RELREC 数据集来支持此关系。[Source: domains/RS/assumptions.md — item_4] |\n\n### 为什么使用 --LNKGRP 而非其他 ID 变量\n\n根据 SDTM 规范，`--GR",
      "usage": {
        "prompt_tokens": 15264,
        "completion_tokens": 617,
        "total_tokens": 15881
      },
      "model": "deepseek/deepseek-chat",
      "answer": "## TR 域与 RS 域的关联机制\n\n在肿瘤学研究中，**TR（Tumor/Lesion Results）域**和**RS（Disease Response）域**通过 **RELREC 关系数据集**进行关联，使用的特定标识变量是 **TRLNKGRP** 和 **RSLNKGRP**。\n\n### 关联方向与变量\n\n| 关联方向 | 使用的变量 | 说明 |\n|---------|-----------|------|\n| **TR → RS** | **TRLNKGRP** | TR 域中的 `TRLNKGRP` 用于将 TR 记录关联到 RS 域中的响应评估记录。需要创建 RELREC 关系来链接相关数据行，数据集到数据集的链接是最合适的机制。[Source: domains/TR/assumptions.md — item_2] |\n| **RS → TR** | **RSLNKGRP** | RS 域中的 `RSLNKGRP` 用于提供与 Findings 域（如 TR、LB）中记录的链接，这些记录共同构成了 RS 域中的一条响应评估记录。同样需要 RELREC 数据集来支持此关系。[Source: domains/RS/assumptions.md — item_4] |\n\n### 为什么使用 --LNKGRP 而非其他 ID 变量\n\n根据 SDTM 规范，`--GRPID`、`--REFID` 和 `--SPID` 可能被用于其他用途，因此不能用于此关联。`--LNKGRP` 变量专门用于支持 RELREC 数据集到数据集的关联，并为每个响应及其相关的肿瘤/病灶测量/评估提供唯一代码。[Source: domains/TR/assumptions.md — item_2]\n\n### 补充：TU 与 TR 的关联\n\n作为补充背景，**TU（Tumor/Lesion Identification）域**与 **TR 域**之间使用 **TULNKID** 和 **TRLNKID** 进行关联：\n\n- **TU → TR**：`TULNKID` 用于将 TU 中的识别记录关联到 TR 中的评估记录。[Source: domains/TU/assumptions.md — item_2]\n- **TR → TU**：`TRLNKID` 用于将 TR 中的记录关联到 TU 中的识别记录。[Source: domains/TR/assumptions.md — item_1]\n\n### 数据流总结\n\n```\nTU (肿瘤/病灶识别) ──TULNKID/TRLNKID──→ TR (肿瘤/病灶测量/评估)\n                                              │\n                                              │ TRLNKGRP/RSLNKGRP\n                                              ▼\n                                        RS (疾病响应评估)\n```\n\n其中，TU→TR 的关联使用 `--LNKID` 变量，而 TR→RS 的关联使用 `--LNKGRP` 变量，两者均需通过 **RELREC** 数据集正式记录这些关系。",
      "elapsed_s": 7.12
    },
    {
      "id": "q28",
      "category": "cross_domain",
      "question": "What is the FA (Findings About Events or Interventions) domain and how does it link to parent domains like AE or CM using FAOBJ?",
      "source_recall": 1.0,
      "source_hits": [
        "domains/FA/spec.md"
      ],
      "source_misses": [],
      "top5_sources": [
        "VARIABLE_INDEX.md",
        "domains/FA/spec.md",
        "domains/AE/spec.md",
        "domains/CM/spec.md",
        "domains/FA/assumptions.md"
      ],
      "top5_similarities": [
        0.5985,
        0.5917,
        0.6388,
        0.4692,
        0.6937
      ],
      "fact_recall": 1.0,
      "fact_hits": [
        "Findings About",
        "FAOBJ",
        "FATESTCD"
      ],
      "fact_misses": [],
      "answer_preview": "## FA（Findings About Events or Interventions）域概述\n\nFA 域是 SDTM 中用于记录**关于事件或干预措施的发现**的域。它属于 **Findings 观察类**下的一个子类型（Findings About）[Source: model/02_observation_classes.md]。\n\n### 核心变量定义\n\n| 变量名 | Label | Type | Role | Core |\n|--------|-------|------|------|------|\n| FATESTCD | Findings About Test Short Name | Char | Topic | Req |\n| FATEST | Findings About Test Name | Char | Synonym Qualifier | Req |\n| FAOBJ | Object of the Observation | Char | Record Qualifier | Req |\n| FAORRES | Result or Finding in Original Units | Char | Result Qualifier | Exp |\n| FASTRESC | Character Result/Finding in Std Form",
      "usage": {
        "prompt_tokens": 16893,
        "completion_tokens": 1189,
        "total_tokens": 18082
      },
      "model": "deepseek/deepseek-chat",
      "answer": "## FA（Findings About Events or Interventions）域概述\n\nFA 域是 SDTM 中用于记录**关于事件或干预措施的发现**的域。它属于 **Findings 观察类**下的一个子类型（Findings About）[Source: model/02_observation_classes.md]。\n\n### 核心变量定义\n\n| 变量名 | Label | Type | Role | Core |\n|--------|-------|------|------|------|\n| FATESTCD | Findings About Test Short Name | Char | Topic | Req |\n| FATEST | Findings About Test Name | Char | Synonym Qualifier | Req |\n| FAOBJ | Object of the Observation | Char | Record Qualifier | Req |\n| FAORRES | Result or Finding in Original Units | Char | Result Qualifier | Exp |\n| FASTRESC | Character Result/Finding in Std Format | Char | Result Qualifier | Exp |\n| FASTAT | Completion Status | Char | Record Qualifier | Perm |\n| FADTC | Date/Time of Collection | Char | Timing | Exp |\n\n[Source: domains/FA/spec.md]\n\n### FAOBJ 的作用与链接机制\n\n**FAOBJ（Object of the Observation）** 是 FA 域独有的变量，用于描述该发现所针对的事件或干预措施对象 [Source: model/02_observation_classes.md]。\n\nFAOBJ 通过以下方式与父域（如 AE、CM）建立关联：\n\n1. **值对应关系**：FAOBJ 的值通常取自父域中已编码的术语值。例如：\n   - 当 FA 记录关于不良事件的发现时，FAOBJ 的值取自 **AEDECOD**（MedDRA 编码术语）[Source: domains/FA/examples.md, Example 6]\n   - 当 FA 记录关于伴随用药的发现时，FAOBJ 的值取自 **CMDECOD** 或 **CMTRT**\n\n2. **通过 FASPID 或 RELREC 建立记录级关联**：\n   - **FASPID**：可包含父域记录的 AESPID 值，用于标识对应的 AE 记录 [Source: domains/FA/examples.md, Example 6]\n   - **RELREC**：当需要显式记录关联时，可使用 RELREC 域建立 FA 记录与父域记录之间的关系 [Source: domains/FA/examples.md, Example 4]\n\n### 何时使用 FA 域（三个标准）\n\n根据 SDTMIG §6.4.1，满足以下任一标准时应使用 FA 域 [Source: domains/FA/assumptions.md]：\n\n| 标准 | 说明 | 示例 |\n|------|------|------|\n| **标准1** | 数据或观察具有与关联事件/干预措施整体**不同的时间点**（即\"快照\"或\"切片\"） | 每次访视评估 AE 的严重程度，而非整个 AE 的总体严重程度 |\n| **标准2** | 关于事件/干预措施的观察需要**多个变量**来表示，无法作为补充限定词（SUPPQUAL） | 皮疹的直径测量（需要值和单位两个变量） |\n| **标准3** | 指示**预设 AE** 发生的数据 | 每次访视询问预设 AE 列表（头痛、恶心等）是否发生 |\n\n### 实际示例\n\n**示例1：AE 严重程度的访视级评估（标准1）**\n\nAE 记录（父域）：\n```\nAETERM=\"Morning queasiness\", AEDECOD=\"Nausea\", AESEV=\"MODERATE\"（整个事件的总体严重程度）\n```\n\nFA 记录（关于该 AE 的发现）：\n```\nFATESTCD=\"SEV\", FATEST=\"Severity/Intensity\", FAOBJ=\"Nausea\", FAORRES=\"MILD\", FADTC=\"2006-02-02\"\nFATESTCD=\"SEV\", FATEST=\"Severity/Intensity\", FAOBJ=\"Nausea\", FAORRES=\"MODERATE\", FADTC=\"2006-02-09\"\n```\n[Source: domains/FA/examples.md, Example 6]\n\n**示例2：预设 AE 的发生情况（标准3）**\n\nFA 记录：\n```\nFATESTCD=\"OCCUR\", FATEST=\"Occurrence Indicator\", FAOBJ=\"Headache\", FAORRES=\"Y\"\n```\n对应的 AE 记录中 AEPRESP=\"Y\" [Source: domains/FA/examples.md, Example 4]\n\n### 关联的父域\n\nFA 域可与以下域建立关联 [Source: domains/FA/spec.md]：\n\n| 父域 | 关联类型 |\n|------|---------|\n| AE | 关于不良事件的发现 |\n| CM | 关于伴随用药的发现 |\n| PR | 关于操作的发现 |\n| EX | 关于暴露的发现 |\n| EC | 关于暴露（按收集）的发现 |\n| ML | 关于膳食的发现 |\n| SU | 关于物质使用的发现 |\n\n### 关键注意事项\n\n- FAOBJ 和 FATESTCD 共同描述观察的主题，两者都必须填写 [Source: model/02_observation_classes.md]\n- 当 FA 用于表示事件/干预措施的一部分（而非整体）时，FATESTCD 应使用与父域中限定词变量相同的名称（如 SEV、OCCUR、TOXGR）[Source: domains/FA/assumptions.md]\n- FA 域不应使用 --BODSYS、--MODIFY、--SEV、--TOXGR 等限定词变量 [Source: domains/FA/assumptions.md]",
      "elapsed_s": 12.41
    },
    {
      "id": "q29",
      "category": "cross_domain",
      "question": "How do the four Trial Design domains TA (Trial Arms), TE (Trial Elements), TV (Trial Visits), and TI (Trial Inclusion/Exclusion) work together to define a study design?",
      "source_recall": 1.0,
      "source_hits": [
        "domains/TA/assumptions.md",
        "domains/TE/assumptions.md"
      ],
      "source_misses": [],
      "top5_sources": [
        "domains/TA/spec.md",
        "domains/TE/spec.md",
        "domains/TV/spec.md",
        "domains/TE/assumptions.md",
        "domains/TA/assumptions.md"
      ],
      "top5_similarities": [
        0.7568,
        0.7352,
        0.7534,
        0.7359,
        0.7245
      ],
      "fact_recall": 1.0,
      "fact_hits": [
        "TA",
        "TE",
        "TV",
        "TI"
      ],
      "fact_misses": [],
      "answer_preview": "# Trial Design 域协同工作机制\n\nTA、TE、TV、TI 四个 Trial Design 域从不同维度描述试验设计，它们通过共享的标识符和引用关系构成完整的试验设计模型。\n\n## 域间关系总览\n\n这四个域均属于 **Trial Design** 类 **[Source: domains/TA/spec.md — Related Domains]**，各自承担不同角色：\n\n| 域 | 核心职责 | 记录粒度 |\n|----|---------|---------|\n| **TE** | 定义试验的基本构建块（元素） | 每个唯一元素一条记录 |\n| **TA** | 定义试验臂的组成结构（元素序列） | 每个臂中每个元素一条记录 |\n| **TV** | 定义访视计划和时间安排 | 每个计划访视一条记录 |\n| **TI** | 定义受试者入选/排除标准 | 每条标准一条记录 |\n\n## 1. TE → TA：元素是臂的构建块\n\n**TE（Trial Elements）** 定义了试验中最小的、可复用的时间区间（元素），每个元素有唯一的 **ETCD**（元素代码）和 **ELEMENT**（元素描述），以及开始规则（TESTRL）和结束规则（TEENRL）。**[Source: model/05_study_level_data.md — §5.1 Trial Des",
      "usage": {
        "prompt_tokens": 14714,
        "completion_tokens": 1237,
        "total_tokens": 15951
      },
      "model": "deepseek/deepseek-chat",
      "answer": "# Trial Design 域协同工作机制\n\nTA、TE、TV、TI 四个 Trial Design 域从不同维度描述试验设计，它们通过共享的标识符和引用关系构成完整的试验设计模型。\n\n## 域间关系总览\n\n这四个域均属于 **Trial Design** 类 **[Source: domains/TA/spec.md — Related Domains]**，各自承担不同角色：\n\n| 域 | 核心职责 | 记录粒度 |\n|----|---------|---------|\n| **TE** | 定义试验的基本构建块（元素） | 每个唯一元素一条记录 |\n| **TA** | 定义试验臂的组成结构（元素序列） | 每个臂中每个元素一条记录 |\n| **TV** | 定义访视计划和时间安排 | 每个计划访视一条记录 |\n| **TI** | 定义受试者入选/排除标准 | 每条标准一条记录 |\n\n## 1. TE → TA：元素是臂的构建块\n\n**TE（Trial Elements）** 定义了试验中最小的、可复用的时间区间（元素），每个元素有唯一的 **ETCD**（元素代码）和 **ELEMENT**（元素描述），以及开始规则（TESTRL）和结束规则（TEENRL）。**[Source: model/05_study_level_data.md — §5.1 Trial Design Model]**\n\n**TA（Trial Arms）** 使用 TE 中定义的 ETCD 来构建每个试验臂的元素序列。TA 中的 **TAETORD**（元素顺序号）指定元素在臂中的出现顺序，**TABRANCH**（分支规则）和 **TATRANS**（转换规则）控制元素间的流转。**[Source: model/05_study_level_data.md — §5.1 Trial Design Model]**\n\n> 一个元素可能在 TE 中只出现一次，但在 TA 中多次出现（同一臂内重复或跨臂使用）。**[Source: domains/TE/assumptions.md — §TE Description/Overview]**\n\n## 2. TA → TV：访视依附于臂和元素\n\n**TV（Trial Visits）** 定义计划访视的时间安排。访视的起止规则（TVSTRL、TVENRL）通常引用 epoch 或元素的起止时间点。**[Source: domains/TV/examples.md — Example 1]**\n\n当访视跨越 epoch 边界时（如访视 2 跨越 Screening→Run-In 转换），TV 通过引用 epoch 或元素来精确定位访视时间。对于包含同一元素多次重复的臂，可能需要使用 **TAETORD** 加元素名称来指定访视发生时机。**[Source: domains/TV/examples.md — Example 1]**\n\n## 3. TI：独立的标准定义\n\n**TI（Trial Inclusion/Exclusion Criteria）** 定义试验的入选/排除标准，每条标准一条记录。TI 与 TA/TE/TV 没有直接的变量级引用关系，但它是试验设计的重要组成部分，提供了受试者筛选的规则依据。**[Source: domains/TI/assumptions.md — §TI Assumptions]**\n\nTI 与受试者级别的 **IE**（Inclusion/Exclusion Criteria Not Met）域互补——TI 包含所有标准，IE 仅记录未满足的标准。**[Source: domains/TI/assumptions.md — §TI Assumptions]**\n\n## 4. 协同工作示例\n\n以 Example Trial 1（3臂平行试验）为例 **[Source: domains/TA/examples.md — Example 1]**：\n\n1. **TE** 定义 3 个元素：Screen、Run-In、Placebo/Drug A/Drug B（共 5 个唯一元素）\n2. **TA** 为每个臂定义元素序列（如 Placebo 臂：Screen → Run-In → PLACEBO），使用 ETCD 引用 TE 中的元素\n3. **TV** 定义 5 个访视，访视 2 跨越 Screen→Run-In 转换，访视 3 跨越 Run-In→Treatment 转换\n4. **TI** 定义试验的入选/排除标准（如年龄范围、实验室检查阈值等）\n\n## 5. 关键引用关系总结\n\n```\nTE (元素定义)\n  ETCD ──────────→ TA.ETCD (臂中的元素引用)\n  ELEMENT ───────→ TA.ELEMENT (元素描述)\n\nTA (臂结构)\n  ARMCD/ARM ─────→ TV (访视依附于臂)\n  EPOCH ─────────→ TV (访视跨越 epoch 边界)\n  TAETORD + ETCD ─→ TV (精确定位重复元素中的访视)\n\nTI (标准定义)\n  独立存在，无直接变量级引用，但与 IE 域互补\n```\n\n## 6. 域间关系在 spec 中的体现\n\n每个 Trial Design 域的 spec 文件末尾的 **Related Domains** 部分均列出同类的其他域：\n\n- TA 关联：TD, TE, TI, TM, TS, TV **[Source: domains/TA/spec.md — Related Domains]**\n- TE 关联：TA, TD, TI, TM, TS, TV **[Source: domains/TE/spec.md — Related Domains]**\n- TV 关联：TA, TD, TE, TI, TM, TS **[Source: domains/TV/spec.md — Related Domains]**\n- TI 关联：TA, TD, TE, TM, TS, TV **[Source: domains/TI/spec.md — Related Domains]**\n\n这四个域共同构成了试验设计的核心骨架，使评审者能够快速理解试验结构、比较不同试验设计、以及将计划与实际数据进行对比。**[Source: domains/TA/assumptions.md — §7.1.1 Purpose of the Trial Design Model]**",
      "elapsed_s": 14.16
    },
    {
      "id": "q30",
      "category": "cross_domain",
      "question": "What is the CO (Comments) domain and how does it reference records in other SDTM domains? Describe the RDOMAIN and IDVAR mechanism.",
      "source_recall": 1.0,
      "source_hits": [
        "domains/CO/spec.md",
        "domains/CO/assumptions.md"
      ],
      "source_misses": [],
      "top5_sources": [
        "VARIABLE_INDEX.md",
        "domains/CO/spec.md",
        "chapters/ch08_relationships.md",
        "domains/CO/assumptions.md",
        "domains/CO/assumptions.md"
      ],
      "top5_similarities": [
        0.569,
        0.6492,
        0.6728,
        0.6876,
        0.7154
      ],
      "fact_recall": 1.0,
      "fact_hits": [
        "COVAL",
        "RDOMAIN",
        "IDVAR"
      ],
      "fact_misses": [],
      "answer_preview": "## CO（Comments）域及其引用机制\n\n### CO 域概述\n\n**CO（Comments）** 是一个 **Special Purpose** 类域，用于提交与一个或多个 SDTM 域数据相关的自由文本评论，或收集在专用评论 CRF 页面上的评论。评论通常不是对特定问题的回答，而是自愿提供的自由文本或非请求性观察。[Source: domains/CO/assumptions.md — item_1]\n\n**结构**：每个受试者每条评论一条记录。[Source: model/03_special_purpose_domains.md — Comments (CO)]\n\n**核心变量**：\n\n| 变量 | Label | Type | Role | Core |\n|------|-------|------|------|------|\n| COVAL | Comment | Char | Topic | Req |\n| COSEQ | Sequence Number | Num | Identifier | Req |\n| RDOMAIN | Related Domain Abbreviation | Char | Record Qualifier | Perm |\n| IDVAR | Identifying Variable | Char | Record Qualif",
      "usage": {
        "prompt_tokens": 15275,
        "completion_tokens": 1309,
        "total_tokens": 16584
      },
      "model": "deepseek/deepseek-chat",
      "answer": "## CO（Comments）域及其引用机制\n\n### CO 域概述\n\n**CO（Comments）** 是一个 **Special Purpose** 类域，用于提交与一个或多个 SDTM 域数据相关的自由文本评论，或收集在专用评论 CRF 页面上的评论。评论通常不是对特定问题的回答，而是自愿提供的自由文本或非请求性观察。[Source: domains/CO/assumptions.md — item_1]\n\n**结构**：每个受试者每条评论一条记录。[Source: model/03_special_purpose_domains.md — Comments (CO)]\n\n**核心变量**：\n\n| 变量 | Label | Type | Role | Core |\n|------|-------|------|------|------|\n| COVAL | Comment | Char | Topic | Req |\n| COSEQ | Sequence Number | Num | Identifier | Req |\n| RDOMAIN | Related Domain Abbreviation | Char | Record Qualifier | Perm |\n| IDVAR | Identifying Variable | Char | Record Qualifier | Perm |\n| IDVARVAL | Identifying Variable Value | Char | Record Qualifier | Perm |\n| COREF | Comment Reference | Char | Record Qualifier | Perm |\n| COEVAL | Evaluator | Char | Record Qualifier | Perm (CT: C78735) |\n| CODTC | Date/Time of Comment | Char | Timing | Perm |\n\n[Source: VARIABLE_INDEX.md — CO; model/03_special_purpose_domains.md — Comments (CO)]\n\n---\n\n### RDOMAIN 和 IDVAR 引用机制\n\nCO 域使用与 SUPPQUAL 相同的键集（**STUDYID, RDOMAIN, USUBJID, IDVAR, IDVARVAL**）来标识相关的父记录。[Source: chapters/ch08_relationships.md — §8.5]\n\nCO 域支持 **3 种评论来源**，通过 RDOMAIN、IDVAR 和 IDVARVAL 的填充方式来区分：[Source: domains/CO/assumptions.md — item_3]\n\n#### 1. 与任何域或父记录无关的评论\n- **RDOMAIN** = null\n- **IDVAR** = null\n- **IDVARVAL** = null\n- **CODTC** 应填充（如果已采集）\n- 示例：在独立评论页面上采集的评论\n\n#### 2. 与某个域相关但不与特定父记录相关的评论\n- **RDOMAIN** = 父域的 DOMAIN 代码（如 \"PE\"）\n- **IDVAR** = null\n- **IDVARVAL** = null\n- **CODTC** 应填充（如果已采集）\n- 示例：在 PE 页面底部采集的评论，适用于该访视的所有 PE 记录\n\n#### 3. 与特定父记录或父记录组相关的评论\n- **RDOMAIN** = 父域的 DOMAIN 代码（如 \"AE\"）\n- **IDVAR** = 父记录的关键变量名（如 \"AESEQ\"）\n- **IDVARVAL** = 该变量的值（如 \"7\"）\n- **CODTC** = null（评论记录继承父记录的时序）\n- 示例：与 AESEQ=7 的特定 AE 记录相关的评论\n\n---\n\n### 分组引用\n\n当评论与同一域中的多条记录相关时，可以使用分组变量（如 **--GRPID**）作为 IDVAR 的值。例如，IDVAR=\"EXGRPID\"、IDVARVAL=\"COMBO1\" 表示该评论与 EX 域中 EXGRPID=\"COMBO1\" 的所有记录相关。[Source: chapters/ch08_relationships.md — §8.5; domains/CO/examples.md — Example 1]\n\n**限制**：一条评论只能与一个域中的记录组相关（RDOMAIN 只能有一个值）。如果一条评论涉及多个域中的记录，则可能需要重复该评论记录以表达所有关系。[Source: chapters/ch08_relationships.md — §8.5]\n\n---\n\n### 示例数据\n\n| Row | RDOMAIN | IDVAR | IDVARVAL | COVAL | CODTC |\n|-----|---------|-------|----------|-------|-------|\n| 1 | (null) | (null) | (null) | Comment text | 2003-11-08 |\n| 2 | PE | (null) | (null) | Comment text | 2004-01-14 |\n| 3 | AE | AESEQ | 7 | First 200 characters | (null) |\n| 4 | EX | EXGRPID | COMBO1 | First 200 characters | (null) |\n| 5 | VS | VSGRPID | VS2 | Comment text | (null) |\n\n[Source: domains/CO/examples.md — Example 1]\n\n---\n\n### 长文本处理\n\n当评论文本超过 200 个字符时，前 200 个字符放入 **COVAL**，接下来 200 个字符放入 **COVAL1**，以此类推（COVALn）。[Source: domains/CO/assumptions.md — item_4]\n\n---\n\n### 关键规则总结\n\n1. CO 域是 **Special Purpose** 类域，不是 General Observation Class 域。[Source: model/03_special_purpose_domains.md — Comments (CO)]\n2. CO 域使用 **RDOMAIN + IDVAR + IDVARVAL** 三元组来建立与父记录的关联，机制与 SUPPQUAL 相同。[Source: chapters/ch08_relationships.md — §8.5]\n3. 与特定父记录相关的评论，其 **CODTC 应为 null**，因为时序信息从父记录继承。[Source: domains/CO/assumptions.md — item_3c]\n4. 与受试者整体相关（而非特定域或记录）的评论，仅通过 **USUBJID** 关联，RDOMAIN/IDVAR/IDVARVAL 均为 null。[Source: chapters/ch08_relationships.md — §8.5]\n5. 评论不应作为 SUPPQUAL 提交，而应放入 CO 域。[Source: chapters/ch08_relationships.md — §8.4.4]",
      "elapsed_s": 12.3
    },
    {
      "id": "q31",
      "category": "cross_domain",
      "question": "How are the EC (Exposure as Collected) and EX (Exposure) domains different in purpose, and when should each be used?",
      "source_recall": 1.0,
      "source_hits": [
        "domains/EC/assumptions.md"
      ],
      "source_misses": [],
      "top5_sources": [
        "domains/EC/spec.md",
        "domains/EX/spec.md",
        "domains/EX/assumptions.md",
        "domains/EC/assumptions.md",
        "domains/EX/assumptions.md"
      ],
      "top5_similarities": [
        0.5814,
        0.5962,
        0.7328,
        0.7317,
        0.5907
      ],
      "fact_recall": 1.0,
      "fact_hits": [
        "collected",
        "EX",
        "EC"
      ],
      "fact_misses": [],
      "answer_preview": "## EC 与 EX 域的区别与使用场景\n\n### 核心区别\n\n| 维度 | EC (Exposure as Collected) | EX (Exposure) |\n|------|---------------------------|---------------|\n| **目的** | 反映**按收集的**方案规定研究治疗给药记录 | 反映**按方案规定单位**的研究治疗暴露量，通常是**衍生数据集** |\n| **数据性质** | 原始收集数据（如片数、mL数） | 衍生数据（如mg、mg/kg） |\n| **单位** | 收集时的单位（如 TABLET, mL） | 方案规定单位（如 mg, mg/kg） |\n| **是否必需** | 可选（当EC与EX完全一致时可省略） | 所有含方案规定研究治疗的研究**必需** |\n\n### 使用规则\n\n**EC 域的使用场景**（依据 [Source: domains/EC/assumptions.md -- item_1]）：\n\n1. **当收集的暴露信息不能或不应直接表示为 EX 域时**必须使用 EC。例如：\n   - 收集单位为片数（tablets），但方案规定单位为 mg\n   - 收集单位为 mL，但方案规定单位为 mg/kg\n   \n2. **收集的暴露数据通常组合使用**：EC + DA（产品清点）+ FA（关于",
      "usage": {
        "prompt_tokens": 14382,
        "completion_tokens": 933,
        "total_tokens": 15315
      },
      "model": "deepseek/deepseek-chat",
      "answer": "## EC 与 EX 域的区别与使用场景\n\n### 核心区别\n\n| 维度 | EC (Exposure as Collected) | EX (Exposure) |\n|------|---------------------------|---------------|\n| **目的** | 反映**按收集的**方案规定研究治疗给药记录 | 反映**按方案规定单位**的研究治疗暴露量，通常是**衍生数据集** |\n| **数据性质** | 原始收集数据（如片数、mL数） | 衍生数据（如mg、mg/kg） |\n| **单位** | 收集时的单位（如 TABLET, mL） | 方案规定单位（如 mg, mg/kg） |\n| **是否必需** | 可选（当EC与EX完全一致时可省略） | 所有含方案规定研究治疗的研究**必需** |\n\n### 使用规则\n\n**EC 域的使用场景**（依据 [Source: domains/EC/assumptions.md -- item_1]）：\n\n1. **当收集的暴露信息不能或不应直接表示为 EX 域时**必须使用 EC。例如：\n   - 收集单位为片数（tablets），但方案规定单位为 mg\n   - 收集单位为 mL，但方案规定单位为 mg/kg\n   \n2. **收集的暴露数据通常组合使用**：EC + DA（产品清点）+ FA（关于事件或干预的发现）\n\n3. **如果整个 EC 数据集与 EX 完全重复**，则 EC 为可选，由申办方决定\n\n**EX 域的使用规则**（依据 [Source: domains/EX/assumptions.md -- item_1]）：\n\n1. **EX 是衍生数据集**，EXDOSE 反映方案规定单位的研究治疗剂量\n2. **EX 是必需的**——所有含方案规定研究治疗的研究都必须有 EX 域\n3. **EX 记录按恒定给药间隔生成**——每个受试者每个恒定给药间隔一条记录\n4. **未给药的记录不应出现在 EX 中**（EX 只包含已接受的给药）\n\n### EC → EX 的衍生关系\n\n| 方面 | 规则 |\n|------|------|\n| **汇总程度** | 从 EC 到 EX 的记录汇总程度由申办方定义，以支持研究目的和分析 [Source: domains/EC/assumptions.md -- item_6] |\n| **RELREC 关系** | 当 EC 与 EX 记录之间的关系可用 RELREC 描述时，应予以定义 [Source: domains/EX/assumptions.md -- item_5] |\n| **衍生说明** | EX 的衍生方法必须在 Define-XML 中描述 [Source: domains/EX/assumptions.md -- item_5] |\n| **变量使用** | 当同时使用 EC 和 EX 时，EXVAMT 和 EXVAMTU 不应在 EX 中使用；收集值应放在 ECDOSE/ECDOSU（以及需要的 ECVAMT/ECVAMTU）中 [Source: domains/EX/assumptions.md -- item_6] |\n\n### 示例说明\n\n**示例 1：单位转换**（来自 [Source: domains/EX/examples.md -- Example 3]）\n\n- **EC**：记录为 \"1 TABLET\"（收集单位）\n- **EX**：根据揭盲信息（每片含 10 mg），衍生为 \"20 mg\"（方案规定单位）\n\n**示例 2：未给药处理**（来自 [Source: domains/EX/examples.md -- Example 7]）\n\n- **EC**：记录未给药的剂量（ECOCCUR = \"N\"，ECREASOC = \"PERSONAL REASON\"）\n- **EX**：**不包含**该未给药的记录——EX 只反映实际接受的给药\n\n### 总结\n\n| 情况 | 使用 EC | 使用 EX |\n|------|---------|---------|\n| 收集单位与方案单位不同 | ✅ 必需 | ✅ 衍生为方案单位 |\n| 收集单位与方案单位相同 | 可选（可省略） | ✅ 必需 |\n| 记录未给药的剂量 | ✅ 可以 | ❌ 不应包含 |\n| 产品清点详情（发放量、回收量） | ❌ 用 DA 域 | ❌ 用 DA 域 |\n| 盲态研究中无法按方案单位表示剂量 | ✅ 可以 | ❌ 不期望填充 |",
      "elapsed_s": 10.36
    },
    {
      "id": "q32",
      "category": "cross_domain",
      "question": "How is VISIT and VISITNUM used consistently across observation-class domains, and what role does the SV (Subject Visits) domain play in tracking actual visit dates?",
      "source_recall": 1.0,
      "source_hits": [
        "domains/SV/spec.md",
        "domains/SV/assumptions.md"
      ],
      "source_misses": [],
      "top5_sources": [
        "VARIABLE_INDEX.md",
        "domains/SV/spec.md",
        "model/03_special_purpose_domains.md",
        "chapters/ch04_general_assumptions.md",
        "domains/SV/assumptions.md"
      ],
      "top5_similarities": [
        0.6554,
        0.6543,
        0.7044,
        0.6665,
        0.6646
      ],
      "fact_recall": 1.0,
      "fact_hits": [
        "VISIT",
        "VISITNUM",
        "SV"
      ],
      "fact_misses": [],
      "answer_preview": "## VISIT 和 VISITNUM 在观察类域中的一致使用\n\n### 1. VISITNUM 和 VISIT 的跨域一致性规则\n\n**VISITNUM（访视编号）** 和 **VISIT（访视名称）** 是 SDTM 中跨所有观察类域（Interventions、Events、Findings）使用的标准变量，其使用遵循以下规则：\n\n| 属性 | VISITNUM | VISIT |\n|------|----------|-------|\n| **Label** | Visit Number | Visit Name |\n| **Type** | Num | Char |\n| **Role** | Timing（在 Findings/Interventions 域中）或 Topic（在 SV 域中） | Timing |\n| **Core** | Exp（期望） | Perm（允许） |\n| **CDISC Notes** | 临床就诊编号；VISIT 的数值版本，用于排序 | 方案定义的临床就诊描述；可与 VISITNUM 和/或 VISITDY 配合使用 |\n\n**[Source: domains/SV/spec.md — VISITNUM; domains/AG/spec.md — VISITNUM, VISIT; domains/FA/spec.md — VISITNU",
      "usage": {
        "prompt_tokens": 14489,
        "completion_tokens": 1435,
        "total_tokens": 15924
      },
      "model": "deepseek/deepseek-chat",
      "answer": "## VISIT 和 VISITNUM 在观察类域中的一致使用\n\n### 1. VISITNUM 和 VISIT 的跨域一致性规则\n\n**VISITNUM（访视编号）** 和 **VISIT（访视名称）** 是 SDTM 中跨所有观察类域（Interventions、Events、Findings）使用的标准变量，其使用遵循以下规则：\n\n| 属性 | VISITNUM | VISIT |\n|------|----------|-------|\n| **Label** | Visit Number | Visit Name |\n| **Type** | Num | Char |\n| **Role** | Timing（在 Findings/Interventions 域中）或 Topic（在 SV 域中） | Timing |\n| **Core** | Exp（期望） | Perm（允许） |\n| **CDISC Notes** | 临床就诊编号；VISIT 的数值版本，用于排序 | 方案定义的临床就诊描述；可与 VISITNUM 和/或 VISITDY 配合使用 |\n\n**[Source: domains/SV/spec.md — VISITNUM; domains/AG/spec.md — VISITNUM, VISIT; domains/FA/spec.md — VISITNUM; domains/PE/spec.md — VISITNUM]**\n\n**关键一致性规则**（来自第 4.4.5 节）：\n\n- **计划访视**：VISITNUM、VISIT 和 VISITDY 的值必须与 Trial Visits (TV) 数据集中定义的值一致\n- **VISITNUM**：数值型，用于排序；应尽可能匹配访视的计划时间顺序\n- **VISIT**：来自方案的访视字符名称\n- **VISIT 与 VISITNUM 之间必须是一对一关系**\n- **计划访视**：如果受试者级数据集同时包含 VISITNUM 和 VISIT，则 VISITNUM 值出现在 TV 数据集中的记录也应包含 TV 数据集中对应的 VISIT 值\n\n**[Source: chapters/ch04_general_assumptions.md §4.4.5; domains/TV/assumptions.md item_6]**\n\n**非计划访视的处理**：\n\n- VISITNUM 通常应填写，即使是非计划访视\n- 最简单的方法是为所有非计划访视分配相同的值（如 99），但这种方法无法区分不同非计划访视\n- VISIT 可以留空，或填写通用值（如 \"Unscheduled\"），或为不同非计划访视分配单独的值\n- VISITDY **不得**为非计划访视填写（VISITDY 是计划访视日，非计划访视的实际研究日应放在 --DY 变量中）\n\n**[Source: chapters/ch04_general_assumptions.md §4.4.5]**\n\n### 2. SV（Subject Visits）域的作用\n\nSV 域是 **Special Purpose** 类域，结构为 **\"每个受试者每个实际或计划访视一条记录\"**。\n\n**[Source: model/03_special_purpose_domains.md — Subject Visits (SV)]**\n\n#### SV 域的核心变量\n\n| 变量 | Label | Role | Core | 说明 |\n|------|-------|------|------|------|\n| VISITNUM | Visit Number | Topic | Req | 访视编号 |\n| VISIT | Visit Name | Synonym Qualifier | Perm | 访视名称 |\n| SVSTDTC | Start Date/Time of Visit | Timing | Exp | 访视开始日期/时间 |\n| SVENDTC | End Date/Time of Visit | Timing | Exp | 访视结束日期/时间 |\n| SVSTDY | Study Day of Start of Visit | Timing | Perm | 访视开始的研究日 |\n| SVENDY | Study Day of End of Visit | Timing | Perm | 访视结束的研究日 |\n| SVUPDES | Description of Unplanned Visit | Record Qualifier | Perm | 非计划访视描述 |\n| SVPRESP | Pre-Specified | Variable Qualifier | Exp | 是否预设访视 |\n| SVOCCUR | Occurrence | Record Qualifier | Exp | 是否发生 |\n| SVCNTMOD | Contact Mode | Record Qualifier | Perm | 联系模式 |\n| SVEPCHGI | Epi/Pandemic Related Change Indicator | Record Qualifier | Perm | 流行病/大流行相关变更指示 |\n\n**[Source: VARIABLE_INDEX.md — SV; model/03_special_purpose_domains.md — Subject Visits (SV)]**\n\n#### SV 域的关键作用\n\n1. **跟踪实际访视日期**：SV 域记录每个受试者每次实际或计划访视的开始和结束日期/时间（SVSTDTC、SVENDTC），以及对应的研究日（SVSTDY、SVENDY）\n\n2. **与 TV 域对比**：将单个受试者的 SV 数据集与描述试验计划访视的 TV 数据集进行比较，可以识别计划但未完成的访视\n\n3. **识别计划偏差**：比较 SVSTDY/SVENDY 与 VISIT/VISITDY 的值，通常可以突出显示与计划访视时间的偏差\n\n4. **非计划访视记录**：非计划访视的记录也应包含在 SV 数据集中，SVUPDES 可填写非计划访视的原因描述\n\n**[Source: domains/SV/assumptions.md — overview, item_6]**\n\n### 3. 跨域一致性示例\n\n以下示例展示了 VISITNUM 和 VISIT 如何在实验室数据（LB 域）中使用：\n\n| USUBJID | VISIT | VISITNUM | VISITDY | LBDY |\n|---------|-------|----------|---------|------|\n| 001 | Week 1 | 2 | | |\n| 001 | Week 2 | 3 | 14 | 13 |\n| 001 | Week 2 Unscheduled | 3.1 | | 17 |\n\n注意：非计划访视 \"Week 2 Unscheduled\" 的 VISITDY 为空（计划访视日），而实际研究日 LBDY=17 在 --DY 变量中。\n\n**[Source: chapters/ch04_general_assumptions.md §4.4.5]**\n\n### 总结\n\n- **VISITNUM** 和 **VISIT** 在所有观察类域中保持一致使用，计划访视的值必须来自 TV 数据集\n- **SV 域** 是连接计划访视（TV）和实际数据收集的关键桥梁，通过记录实际访视日期/时间，使审阅者能够评估受试者实际访视与计划访视的一致性\n- 非计划访视在 SV 域中也有记录，通过 SVUPDES 描述原因，并在各数据域中使用 VISITNUM 标识",
      "elapsed_s": 12.91
    },
    {
      "id": "q33",
      "category": "cross_domain",
      "question": "What is the RELSPEC domain and how does it define relationships between datasets at the study level, as opposed to RELREC which links individual records?",
      "source_recall": 1.0,
      "source_hits": [
        "domains/RELSPEC/spec.md"
      ],
      "source_misses": [],
      "top5_sources": [
        "domains/RELSPEC/spec.md",
        "domains/RELREC/spec.md",
        "domains/RELREC/assumptions.md",
        "chapters/ch08_relationships.md",
        "chapters/ch08_relationships.md"
      ],
      "top5_similarities": [
        0.5814,
        0.6533,
        0.7707,
        0.7621,
        0.7252
      ],
      "fact_recall": 1.0,
      "fact_hits": [
        "RELSPEC",
        "RELREC"
      ],
      "fact_misses": [],
      "answer_preview": "# RELSPEC 域与 RELREC 域的区别\n\n## RELSPEC 域\n\n**RELSPEC**（Related Specimens）是一个**关系数据集**（Relationship class），用于描述**标本之间的谱系关系**（specimen lineage），例如母标本与衍生等分试样或处理后的标本之间的关系。**[Source: model/06_relationship_datasets.md — 6.7 Related Specimens (RELSPEC)]**\n\n### RELSPEC 变量定义\n\n| # | 变量 | 标签 | 类型 | 角色 | 说明 |\n|---|------|------|------|------|------|\n| 1 | STUDYID | Study Identifier | Char | Identifier | 研究唯一标识符 |\n| 2 | USUBJID | Unique Subject Identifier | Char | Identifier | 受试者唯一标识符 |\n| 3 | REFID | Reference ID | Char | Identifier | 标本引用标识符（C82531） |\n| 4 | SPEC | Specimen Type | Char | Variable Qualifier (",
      "usage": {
        "prompt_tokens": 15697,
        "completion_tokens": 1073,
        "total_tokens": 16770
      },
      "model": "deepseek/deepseek-chat",
      "answer": "# RELSPEC 域与 RELREC 域的区别\n\n## RELSPEC 域\n\n**RELSPEC**（Related Specimens）是一个**关系数据集**（Relationship class），用于描述**标本之间的谱系关系**（specimen lineage），例如母标本与衍生等分试样或处理后的标本之间的关系。**[Source: model/06_relationship_datasets.md — 6.7 Related Specimens (RELSPEC)]**\n\n### RELSPEC 变量定义\n\n| # | 变量 | 标签 | 类型 | 角色 | 说明 |\n|---|------|------|------|------|------|\n| 1 | STUDYID | Study Identifier | Char | Identifier | 研究唯一标识符 |\n| 2 | USUBJID | Unique Subject Identifier | Char | Identifier | 受试者唯一标识符 |\n| 3 | REFID | Reference ID | Char | Identifier | 标本引用标识符（C82531） |\n| 4 | SPEC | Specimen Type | Char | Variable Qualifier (REFID) | 标本类型（C70713） |\n| 5 | PARENT | Specimen Parent | Char | Identifier | 标识母标本的 REFID，用于追踪谱系 |\n| 6 | LEVEL | Specimen Level | Num | Variable Qualifier (REFID) | 标本的代数编号，采集标本为第一代 |\n\n**[Source: model/06_relationship_datasets.md — 6.7 Related Specimens (RELSPEC)]**\n\n### RELSPEC 的关键假设\n\n1. **RELSPEC 不用于管理任何其他数据集或域之间的关系**。**[Source: domains/RELSPEC/assumptions.md — item_1]**\n2. **RELSPEC 仅用于维护标本之间的关系**，因此不需要 RELREC 中使用的那些额外变量（如 RDOMAIN、IDVAR、IDVARVAL、RELTYPE、RELID）。**[Source: domains/RELSPEC/assumptions.md — item_2]**\n\n---\n\n## RELREC 域\n\n**RELREC**（Related Records）是一个**关系数据集**（Relationship class），用于描述：\n- **受试者记录之间的关系**（域内或跨域）\n- **数据集之间的关系**（如一对多或父子关系）\n\n**[Source: model/06_relationship_datasets.md — 6.1 Related Records (RELREC)]**\n\n### RELREC 变量定义\n\n| # | 变量 | 标签 | 类型 | 角色 | 核心 |\n|---|------|------|------|------|------|\n| 1 | STUDYID | Study Identifier | Char | Identifier | Req |\n| 2 | RDOMAIN | Related Domain Abbreviation | Char | Identifier | Req |\n| 3 | USUBJID | Unique Subject Identifier | Char | Identifier | Exp |\n| 4 | IDVAR | Identifying Variable | Char | Identifier | Req |\n| 5 | IDVARVAL | Identifying Variable Value | Char | Identifier | Exp |\n| 6 | RELTYPE | Relationship Type | Char | Record Qualifier | Exp |\n| 7 | RELID | Relationship Identifier | Char | Record Qualifier | Req |\n\n**[Source: chapters/ch08_relationships.md — 8.2.1 Related Records (RELREC)]**\n\n---\n\n## 核心区别\n\n| 维度 | RELSPEC | RELREC |\n|------|---------|--------|\n| **用途** | 描述标本之间的谱系关系（母→子） | 描述记录之间的关系（域内/跨域）或数据集之间的关系 |\n| **作用对象** | 标本（specimens） | 记录（records）或数据集（datasets） |\n| **关系类型** | 标本谱系（parent-child lineage） | 对等记录关系（peer records）或数据集层级关系（dataset-level） |\n| **关键变量** | REFID, PARENT, LEVEL | RDOMAIN, IDVAR, IDVARVAL, RELID, RELTYPE |\n| **是否支持数据集级关系** | **否** — 仅用于标本 | **是** — 支持数据集到数据集的关系（使用 RELTYPE = ONE/MANY） |\n| **USUBJID 是否可为空** | 否（必须填充） | 是（数据集级关系时可空） |\n\n---\n\n## 关于\"研究级别\"关系的澄清\n\n**RELREC 支持数据集级别的关系**（dataset-level relationships），这可以视为\"研究级别\"的关系定义。当 RELREC 用于数据集关系时：\n- USUBJID 和 IDVARVAL 为空\n- IDVAR 包含用于合并/连接的键名（如 --LNKID、--GRPID、--SPID、--REFID、--LNKGRP）\n- RELTYPE 标识层级关系（ONE 或 MANY）\n\n**[Source: chapters/ch08_relationships.md — 8.3.1 RELREC Dataset Relationship Example]**\n\n**RELSPEC 不支持任何数据集级别或研究级别的关系**。它严格限定于标本之间的谱系追踪，不涉及域间或数据集间的关系定义。**[Source: domains/RELSPEC/assumptions.md — item_1]**",
      "elapsed_s": 9.85
    },
    {
      "id": "q34",
      "category": "cross_domain",
      "question": "Which SDTM domains share the controlled terminology codelist for NY (No Yes Response, C66742), and what variable typically uses this codelist in those domains?",
      "source_recall": 1.0,
      "source_hits": [
        "VARIABLE_INDEX.md"
      ],
      "source_misses": [],
      "top5_sources": [
        "VARIABLE_INDEX.md",
        "terminology/core/general_part4.md",
        "chapters/ch04_general_assumptions.md",
        "chapters/ch04_general_assumptions.md",
        "model/01_concepts_and_terms.md"
      ],
      "top5_similarities": [
        0.4516,
        0.5903,
        0.6157,
        0.6351,
        0.5697
      ],
      "fact_recall": 1.0,
      "fact_hits": [
        "C66742",
        "NY"
      ],
      "fact_misses": [],
      "answer_preview": "根据检索到的上下文，**No Yes Response (C66742)** 这个受控术语列表被以下 SDTM 域引用：\n\n| 域 | 使用该 CT 的变量 |\n|----|-----------------|\n| **SV** (Subject Visits) | `SVPRESP`, `SVOCCUR`, `SVEPCHGI` |\n| **TM** (Trial Disease Milestones) | `TMRPT` |\n\n**来源：**\n- SV 域规范中明确列出 `SVPRESP`, `SVOCCUR`, `SVEPCHGI` 使用 C66742 [Source: domains/SV/spec.md — Controlled Terminology]\n- TM 域规范中明确列出 `TMRPT` 使用 C66742 [Source: domains/TM/spec.md — Controlled Terminology]\n\n此外，根据通用假设章节，`--PRESP` 变量通常与 NY codelist 关联，但仅允许值 \"Y\" [Source: chapters/ch04_general_assumptions.md §4.3.3]。这意味着其他域中带有 `--PRESP` 后缀的变量（如 `AEPRESP`、`CEPRESP` 等）也可能使用该 codelist，但当",
      "usage": {
        "prompt_tokens": 13047,
        "completion_tokens": 271,
        "total_tokens": 13318
      },
      "model": "deepseek/deepseek-chat",
      "answer": "根据检索到的上下文，**No Yes Response (C66742)** 这个受控术语列表被以下 SDTM 域引用：\n\n| 域 | 使用该 CT 的变量 |\n|----|-----------------|\n| **SV** (Subject Visits) | `SVPRESP`, `SVOCCUR`, `SVEPCHGI` |\n| **TM** (Trial Disease Milestones) | `TMRPT` |\n\n**来源：**\n- SV 域规范中明确列出 `SVPRESP`, `SVOCCUR`, `SVEPCHGI` 使用 C66742 [Source: domains/SV/spec.md — Controlled Terminology]\n- TM 域规范中明确列出 `TMRPT` 使用 C66742 [Source: domains/TM/spec.md — Controlled Terminology]\n\n此外，根据通用假设章节，`--PRESP` 变量通常与 NY codelist 关联，但仅允许值 \"Y\" [Source: chapters/ch04_general_assumptions.md §4.3.3]。这意味着其他域中带有 `--PRESP` 后缀的变量（如 `AEPRESP`、`CEPRESP` 等）也可能使用该 codelist，但当前检索到的上下文中未明确列出这些域的 CT 引用。",
      "elapsed_s": 3.93
    },
    {
      "id": "q11",
      "category": "concept",
      "question": "What are the three observation classes in the SDTM model?",
      "source_recall": 1.0,
      "source_hits": [
        "model/02_observation_classes.md"
      ],
      "source_misses": [],
      "top5_sources": [
        "model/01_concepts_and_terms.md",
        "model/02_observation_classes.md",
        "chapters/ch04_general_assumptions.md",
        "chapters/ch04_general_assumptions.md",
        "terminology/supplementary/supplementary_part5.md"
      ],
      "top5_similarities": [
        0.5632,
        0.7205,
        0.5452,
        0.5352,
        0.5473
      ],
      "fact_recall": 1.0,
      "fact_hits": [
        "Interventions",
        "Events",
        "Findings"
      ],
      "fact_misses": [],
      "answer_preview": "根据 SDTM 模型，三大通用观察类（General Observation Classes）为：\n\n1. **Interventions（干预）** — 代表对受试者实施或由受试者使用的、具有实际或预期生理效应的治疗（包括研究性、治疗性及其他处理）。例如：合并用药（CM）、暴露（EX）等。  \n   **[Source: model/02_observation_classes.md — Overview]**\n\n2. **Events（事件）** — 代表自发发生在受试者身上的事件（通常是医学事件）。例如：不良事件（AE）、病史（MH）等。  \n   **[Source: chapters/ch08_relationships.md — 8.6.1 Guidelines for Determining the General Observation Class]**\n\n3. **Findings（发现）** — 代表对受试者进行的测量、检验、评估或检查结果（包括对受试者整体或取自受试者的标本）。例如：实验室检查（LB）、生命体征（VS）等。  \n   **[Source: chapters/ch08_relationships.md — 8.6.1 Guidelines for Determining the General Observation Class]**\n\n此外，F",
      "usage": {
        "prompt_tokens": 14978,
        "completion_tokens": 283,
        "total_tokens": 15261
      },
      "model": "deepseek/deepseek-chat",
      "answer": "根据 SDTM 模型，三大通用观察类（General Observation Classes）为：\n\n1. **Interventions（干预）** — 代表对受试者实施或由受试者使用的、具有实际或预期生理效应的治疗（包括研究性、治疗性及其他处理）。例如：合并用药（CM）、暴露（EX）等。  \n   **[Source: model/02_observation_classes.md — Overview]**\n\n2. **Events（事件）** — 代表自发发生在受试者身上的事件（通常是医学事件）。例如：不良事件（AE）、病史（MH）等。  \n   **[Source: chapters/ch08_relationships.md — 8.6.1 Guidelines for Determining the General Observation Class]**\n\n3. **Findings（发现）** — 代表对受试者进行的测量、检验、评估或检查结果（包括对受试者整体或取自受试者的标本）。例如：实验室检查（LB）、生命体征（VS）等。  \n   **[Source: chapters/ch08_relationships.md — 8.6.1 Guidelines for Determining the General Observation Class]**\n\n此外，Findings 类还有一个子类型 **Findings About Events or Interventions（关于事件或干预的发现）**，用于描述对事件或干预的评估结果。  \n**[Source: model/01_concepts_and_terms.md — Concept Map]**",
      "elapsed_s": 4.12
    },
    {
      "id": "q12",
      "category": "concept",
      "question": "What do the Core designations Req, Exp, and Perm mean in SDTM?",
      "source_recall": 1.0,
      "source_hits": [
        "chapters/ch04"
      ],
      "source_misses": [],
      "top5_sources": [
        "chapters/ch04_general_assumptions.md",
        "VARIABLE_INDEX.md",
        "domains/SUPPQUAL/spec.md",
        "chapters/ch04_general_assumptions.md",
        "domains/CO/spec.md"
      ],
      "top5_similarities": [
        0.6571,
        0.5558,
        0.6055,
        5.7202,
        0.5926
      ],
      "fact_recall": 1.0,
      "fact_hits": [
        "Required",
        "Expected",
        "Permissible"
      ],
      "fact_misses": [],
      "answer_preview": "## SDTM 中 Core 设计（Req、Exp、Perm）的含义\n\nSDTM 域模型中的 **Core** 列定义了变量的三种核心设计类别，用于说明变量在数据集中必须如何呈现：\n\n| Core 值 | 含义 | 规则 |\n|---------|------|------|\n| **Req** (Required) | 必需变量——是识别数据记录（即关键标识变量和主题变量）的基础，或使记录有意义所必需的变量。 | **必须始终包含在数据集中，且任何记录都不能为空。** |\n| **Exp** (Expected) | 预期变量——在特定域上下文中使记录有用的必要变量。 | **必须包含在数据集中**；当数据可用时应填充，当数据未收集/不适用时允许为空；但仍需包含该列，并在 Define-XML 中注明该研究未收集该数据项。 |\n| **Perm** (Permissible) | 允许变量——可包含在数据集中。 | 如果研究包含了该变量所代表的数据项，则**必须包含该变量**（即使为空）并在 Define-XML 中声明；如果研究未收集该数据，则**不应包含该变量**，也不应在 Define-XML 中声明。 |\n\n**[Source: chapters/ch04_general_assumptions.md — 4.1.5 SDTM Core Designations]**\n\n",
      "usage": {
        "prompt_tokens": 13764,
        "completion_tokens": 468,
        "total_tokens": 14232
      },
      "model": "deepseek/deepseek-chat",
      "answer": "## SDTM 中 Core 设计（Req、Exp、Perm）的含义\n\nSDTM 域模型中的 **Core** 列定义了变量的三种核心设计类别，用于说明变量在数据集中必须如何呈现：\n\n| Core 值 | 含义 | 规则 |\n|---------|------|------|\n| **Req** (Required) | 必需变量——是识别数据记录（即关键标识变量和主题变量）的基础，或使记录有意义所必需的变量。 | **必须始终包含在数据集中，且任何记录都不能为空。** |\n| **Exp** (Expected) | 预期变量——在特定域上下文中使记录有用的必要变量。 | **必须包含在数据集中**；当数据可用时应填充，当数据未收集/不适用时允许为空；但仍需包含该列，并在 Define-XML 中注明该研究未收集该数据项。 |\n| **Perm** (Permissible) | 允许变量——可包含在数据集中。 | 如果研究包含了该变量所代表的数据项，则**必须包含该变量**（即使为空）并在 Define-XML 中声明；如果研究未收集该数据，则**不应包含该变量**，也不应在 Define-XML 中声明。 |\n\n**[Source: chapters/ch04_general_assumptions.md — 4.1.5 SDTM Core Designations]**\n\n### 补充说明\n\n- 域假设中说明某个 Permissible 变量\"通常不使用\"并不禁止使用该变量。\n- 尽管域规范表只列出了 SDTM 中的部分标识符、时序和通用观察类变量，但**所有变量都是 Permissible 的**，除非本实施指南明确限制（参见第 2.7 节）或特定域假设另有规定。\n- 当域或数据集规范包含某个变量的 codelist 时，只有计划数据收集中的值才应包含在 Define-XML 中。空值不应包含在允许值集中，除非该变量是 Required 的。\n\n**[Source: chapters/ch04_general_assumptions.md — 4.1.5 SDTM Core Designations]**\n**[Source: chapters/ch04_general_assumptions.md — 4.3.3 Controlled Terminology Values]**",
      "elapsed_s": 5.46
    },
    {
      "id": "q13",
      "category": "concept",
      "question": "What is the difference between Topic, Qualifier, and Identifier variable roles?",
      "source_recall": 1.0,
      "source_hits": [
        "model/01_concepts_and_terms.md"
      ],
      "source_misses": [],
      "top5_sources": [
        "model/01_concepts_and_terms.md",
        "model/06_relationship_datasets.md",
        "chapters/ch08_relationships.md",
        "chapters/ch04_general_assumptions.md",
        "domains/ML/assumptions.md"
      ],
      "top5_similarities": [
        0.4934,
        0.4564,
        0.4718,
        0.526,
        0.5227
      ],
      "fact_recall": 1.0,
      "fact_hits": [
        "Topic",
        "Qualifier",
        "Identifier"
      ],
      "fact_misses": [],
      "answer_preview": "## Topic、Qualifier 和 Identifier 变量角色的区别\n\n在 SDTM 中，变量根据其**角色（Role）**进行分类，每个角色描述了变量在观察记录中传达的信息类型。以下是三种主要角色的区别：\n\n---\n\n### 1. Identifier Variables（标识符变量）\n\n**定义：** 标识研究、受试者、域和记录序列号的变量。\n\n**用途：** 唯一标识每条观察记录，确保数据可追溯。\n\n**示例：**\n- `STUDYID` — 研究标识符\n- `USUBJID` — 受试者唯一标识符\n- `DOMAIN` — 域缩写\n- `--SEQ` — 记录序列号\n\n**Core 要求：** 通常为 **Req**（必需）。\n\n**[Source: model/01_concepts_and_terms.md]**\n\n---\n\n### 2. Topic Variables（主题变量）\n\n**定义：** 指定观察焦点的变量。\n\n**用途：** 描述观察记录的核心内容，即\"这条记录是关于什么的\"。\n\n**按观察类别的示例：**\n\n| 观察类 | 示例变量 | 含义 |\n|--------|---------|------|\n| Interventions（干预） | `--TRT` | 治疗名称（如 `CMTRT`） |\n| Events（事件） | `--TERM",
      "usage": {
        "prompt_tokens": 15520,
        "completion_tokens": 1015,
        "total_tokens": 16535
      },
      "model": "deepseek/deepseek-chat",
      "answer": "## Topic、Qualifier 和 Identifier 变量角色的区别\n\n在 SDTM 中，变量根据其**角色（Role）**进行分类，每个角色描述了变量在观察记录中传达的信息类型。以下是三种主要角色的区别：\n\n---\n\n### 1. Identifier Variables（标识符变量）\n\n**定义：** 标识研究、受试者、域和记录序列号的变量。\n\n**用途：** 唯一标识每条观察记录，确保数据可追溯。\n\n**示例：**\n- `STUDYID` — 研究标识符\n- `USUBJID` — 受试者唯一标识符\n- `DOMAIN` — 域缩写\n- `--SEQ` — 记录序列号\n\n**Core 要求：** 通常为 **Req**（必需）。\n\n**[Source: model/01_concepts_and_terms.md]**\n\n---\n\n### 2. Topic Variables（主题变量）\n\n**定义：** 指定观察焦点的变量。\n\n**用途：** 描述观察记录的核心内容，即\"这条记录是关于什么的\"。\n\n**按观察类别的示例：**\n\n| 观察类 | 示例变量 | 含义 |\n|--------|---------|------|\n| Interventions（干预） | `--TRT` | 治疗名称（如 `CMTRT`） |\n| Events（事件） | `--TERM` | 事件术语（如 `AETERM`） |\n| Findings（发现） | `--TESTCD` / `--TEST` | 检测/检查的短名称和全称（如 `LBTESTCD` / `LBTEST`） |\n\n**Core 要求：** 通常为 **Req**（必需）。\n\n**[Source: model/01_concepts_and_terms.md]**\n\n---\n\n### 3. Qualifier Variables（限定符变量）\n\n**定义：** 包含附加说明性文本或数值，用于描述观察结果或记录的额外特征。\n\n**用途：** 为主题变量提供补充信息，使观察记录更加完整。\n\n**Qualifier 有 5 个子类：**\n\n| 子类 | 用途 | 示例 |\n|------|------|------|\n| **Grouping Qualifiers**（分组限定符） | 将同一域内的观察分组 | `--CAT`, `--SCAT` |\n| **Result Qualifiers**（结果限定符） | 描述与主题变量相关的具体结果（仅 Findings 类） | `--ORRES`, `--STRESC`, `--STRESN` |\n| **Synonym Qualifiers**（同义限定符） | 指定变量的替代名称 | `--MODIFY`, `--DECOD`（用于 `--TRT`/`--TERM`）；`--TEST`（用于 `--TESTCD`） |\n| **Record Qualifiers**（记录限定符） | 定义整个观察记录的附加属性 | `--REASND`, `AESLIFE`, `AGE`, `SEX`, `--BLFL`, `--LOC` |\n| **Variable Qualifiers**（变量限定符） | 修改或描述特定变量，仅在其限定的变量上下文中才有意义 | `--ORRESU`（限定 `--ORRES`），`--DOSU`（限定 `--DOSE`） |\n\n**Core 要求：** 因变量而异，通常为 **Exp**（预期）或 **Perm**（允许）。\n\n**[Source: chapters/ch02_fundamentals.md]**\n\n---\n\n### 核心区别总结\n\n| 维度 | Identifier | Topic | Qualifier |\n|------|-----------|-------|-----------|\n| **核心问题** | \"这是谁/什么记录？\" | \"这条记录是关于什么？\" | \"这条记录还有什么特征？\" |\n| **数据唯一性** | 帮助唯一标识记录 | 定义观察的主题 | 补充主题的细节 |\n| **在变量顺序中的位置** | 最前面 | 紧随 Identifier 之后 | 在 Topic 之后、Timing 之前 |\n| **是否可跨域复用** | 是（如 `STUDYID`, `USUBJID` 出现在所有域） | 是，但前缀随域变化（如 `AETERM`, `CMTRT`） | 部分可复用（如 `--CAT`, `--LOC`） |\n\n**[Source: chapters/ch04_general_assumptions.md — 4.1.4 Order of the Variables]**\n\n---\n\n### 变量顺序规则\n\n对于三大通用观察类（Interventions、Events、Findings），变量在数据集中的顺序必须遵循：\n1. **Identifier variables** 优先\n2. 然后是 **Topic variables**\n3. 接着是 **Qualifier variables**\n4. 最后是 **Timing variables**\n\n**[Source: chapters/ch04_general_assumptions.md — 4.1.4]**",
      "elapsed_s": 9.47
    },
    {
      "id": "q14",
      "category": "concept",
      "question": "How should a sponsor create a new custom domain in SDTM?",
      "source_recall": 1.0,
      "source_hits": [
        "chapters/ch02"
      ],
      "source_misses": [],
      "top5_sources": [
        "chapters/ch04_general_assumptions.md",
        "chapters/ch02_fundamentals.md",
        "chapters/ch01_introduction.md",
        "chapters/ch04_general_assumptions.md",
        "chapters/ch03_submitting_data.md"
      ],
      "top5_similarities": [
        0.601,
        0.4731,
        0.4776,
        0.4945,
        0.4894
      ],
      "fact_recall": 1.0,
      "fact_hits": [
        "observation class"
      ],
      "fact_misses": [],
      "answer_preview": "# 如何创建新的自定义 SDTM 域\n\n根据 SDTMIG v3.4，创建新自定义域需遵循以下规则和流程：\n\n## 1. 域代码命名规则\n\n- 自定义域代码**建议**以 X、Y 或 Z 开头（第二位可以是任何字母或数字），以避免与 CDISC 未来定义的域代码冲突 **[Source: chapters/ch04_general_assumptions.md — 4.1.6]**\n- 使用 X/Y/Z 开头是**可选的**，并非强制要求 **[Source: chapters/ch04_general_assumptions.md — 4.1.6]**\n- 域代码第一位字符限 A-Z，第二位字符限 A-Z 或 0-9，不得使用其他字符 **[Source: chapters/ch04_general_assumptions.md — 4.2.2]**\n\n## 2. 确定观察类（General Observation Class）\n\n创建新域的关键步骤是判断数据属于哪一类观察：\n\n| 观察类 | 定义 | 示例 |\n|--------|------|------|\n| **Interventions（干预）** | 对受试者做的、预期有生理效应的事情 | 用药、手术 |\n| **Events（事件）** | 自发发生在受试者身上的事情 | 不良事件、病史 |\n| **Finding",
      "usage": {
        "prompt_tokens": 15873,
        "completion_tokens": 757,
        "total_tokens": 16630
      },
      "model": "deepseek/deepseek-chat",
      "answer": "# 如何创建新的自定义 SDTM 域\n\n根据 SDTMIG v3.4，创建新自定义域需遵循以下规则和流程：\n\n## 1. 域代码命名规则\n\n- 自定义域代码**建议**以 X、Y 或 Z 开头（第二位可以是任何字母或数字），以避免与 CDISC 未来定义的域代码冲突 **[Source: chapters/ch04_general_assumptions.md — 4.1.6]**\n- 使用 X/Y/Z 开头是**可选的**，并非强制要求 **[Source: chapters/ch04_general_assumptions.md — 4.1.6]**\n- 域代码第一位字符限 A-Z，第二位字符限 A-Z 或 0-9，不得使用其他字符 **[Source: chapters/ch04_general_assumptions.md — 4.2.2]**\n\n## 2. 确定观察类（General Observation Class）\n\n创建新域的关键步骤是判断数据属于哪一类观察：\n\n| 观察类 | 定义 | 示例 |\n|--------|------|------|\n| **Interventions（干预）** | 对受试者做的、预期有生理效应的事情 | 用药、手术 |\n| **Events（事件）** | 自发发生在受试者身上的事情 | 不良事件、病史 |\n| **Findings（发现）** | 对受试者进行的测量、检验、评估或检查 | 实验室检查、生命体征 |\n\n**[Source: chapters/ch08_relationships.md — 8.6.1]**\n\n## 3. 变量命名规则\n\n- 将 SDTM 通用观察类变量表中的 \"--\" 前缀替换为 2 字符域代码 **[Source: chapters/ch04_general_assumptions.md — 4.2.2]**\n- 以下变量**例外**，不添加域代码前缀：\n  - 必需标识符：STUDYID、DOMAIN、USUBJID\n  - 常用分组和合并键：VISIT、VISITNUM、VISITDY\n  - DM 域中除 DMDTC 和 DMDY 外的所有变量\n  - RELREC 和 SUPPQUAL 中的所有变量\n  - Comments 和 Trial Design 数据集中的部分变量\n\n**[Source: chapters/ch04_general_assumptions.md — 4.2.2]**\n\n## 4. 数据集结构\n\n- 每个域对应一个数据集，以扁平文件（flat file）形式呈现，行代表观察，列代表变量 **[Source: chapters/ch02_fundamentals.md — 2.2]**\n- 数据集命名应与域代码一致（如 dm.xpt）**[Source: chapters/ch04_general_assumptions.md — 4.1.6]**\n- 元数据需在 Define-XML 文档中描述 **[Source: chapters/ch02_fundamentals.md — 2.2]**\n\n## 5. 关键注意事项\n\n- 首先考虑数据是否适合放入**已有域**，只有在确实需要时才创建新域 **[Source: chapters/ch08_relationships.md — 8.6.1]**\n- 不要仅凭数据的物理结构来判断观察类（例如，有开始/结束日期的数据不一定是 Events）**[Source: chapters/ch08_relationships.md — 8.6.1]**\n- 新域应遵循 SDTM 的 5 种变量角色体系：Identifier（标识符）、Topic（主题）、Timing（时间）、Qualifier（限定词）、Rule（规则）**[Source: chapters/ch02_fundamentals.md — 2.1]**",
      "elapsed_s": 7.72
    },
    {
      "id": "q15",
      "category": "concept",
      "question": "What are the three SDTM Core designation categories for variables, and what are the rules for handling a Permissible variable when a study did not collect the corresponding data item?",
      "source_recall": 1.0,
      "source_hits": [
        "chapters/ch04_general_assumptions.md"
      ],
      "source_misses": [],
      "top5_sources": [
        "chapters/ch04_general_assumptions.md",
        "chapters/ch01_introduction.md",
        "chapters/ch04_general_assumptions.md",
        "chapters/ch04_general_assumptions.md",
        "model/01_concepts_and_terms.md"
      ],
      "top5_similarities": [
        0.7806,
        0.6228,
        0.5995,
        0.5964,
        0.6896
      ],
      "fact_recall": 1.0,
      "fact_hits": [
        "Req",
        "Exp",
        "Perm"
      ],
      "fact_misses": [],
      "answer_preview": "根据 SDTMIG v3.4，变量的三个 Core 类别如下：\n\n| Core 值 | 含义 | 规则 |\n|---------|------|------|\n| **Req** (Required) | 对数据记录识别或使记录有意义所必需的变量 | 必须始终包含在数据集中，且任何记录都不能为空 |\n| **Exp** (Expected) | 预期会出现的变量 | 必须包含在数据集中；当数据可用时应填充，未收集/不适用时允许为空；但仍需包含该列，并在 Define-XML 中注明该研究未包含该数据项 |\n| **Perm** (Permissible) | 允许使用的变量 | 如果研究包含了该变量所代表的数据项，则必须包含该变量（即使为空）并在 Define-XML 中声明；**如果研究未收集该数据项，则不应包含该变量，也不应在 Define-XML 中声明** |\n\n**[Source: chapters/ch04_general_assumptions.md -- 4.1.5 SDTM Core Designations]**\n\n---\n\n**关于 Permissible 变量的处理规则：**\n\n当研究**未收集**某个 Permissible 变量对应的数据项时：\n- **不应**将该变量包含在 SDTM 数据集中\n- **不应**在 Define-XML 文档中声明该变量",
      "usage": {
        "prompt_tokens": 16196,
        "completion_tokens": 330,
        "total_tokens": 16526
      },
      "model": "deepseek/deepseek-chat",
      "answer": "根据 SDTMIG v3.4，变量的三个 Core 类别如下：\n\n| Core 值 | 含义 | 规则 |\n|---------|------|------|\n| **Req** (Required) | 对数据记录识别或使记录有意义所必需的变量 | 必须始终包含在数据集中，且任何记录都不能为空 |\n| **Exp** (Expected) | 预期会出现的变量 | 必须包含在数据集中；当数据可用时应填充，未收集/不适用时允许为空；但仍需包含该列，并在 Define-XML 中注明该研究未包含该数据项 |\n| **Perm** (Permissible) | 允许使用的变量 | 如果研究包含了该变量所代表的数据项，则必须包含该变量（即使为空）并在 Define-XML 中声明；**如果研究未收集该数据项，则不应包含该变量，也不应在 Define-XML 中声明** |\n\n**[Source: chapters/ch04_general_assumptions.md -- 4.1.5 SDTM Core Designations]**\n\n---\n\n**关于 Permissible 变量的处理规则：**\n\n当研究**未收集**某个 Permissible 变量对应的数据项时：\n- **不应**将该变量包含在 SDTM 数据集中\n- **不应**在 Define-XML 文档中声明该变量\n\n**[Source: chapters/ch04_general_assumptions.md -- 4.1.5 SDTM Core Designations]**\n\n这与 Expected 变量的处理方式不同——Expected 变量即使未收集数据也必须保留空列并在 Define-XML 中注释说明。",
      "elapsed_s": 4.47
    },
    {
      "id": "q35",
      "category": "concept",
      "question": "What is Controlled Terminology (CT) in SDTM and how does it constrain the values that variables can contain?",
      "source_recall": 1.0,
      "source_hits": [
        "chapters/ch04"
      ],
      "source_misses": [],
      "top5_sources": [
        "chapters/ch04_general_assumptions.md",
        "chapters/ch04_general_assumptions.md",
        "model/01_concepts_and_terms.md",
        "model/01_concepts_and_terms.md",
        "chapters/ch10_appendices.md"
      ],
      "top5_similarities": [
        0.607,
        0.6772,
        0.6231,
        0.5926,
        0.6138
      ],
      "fact_recall": 1.0,
      "fact_hits": [
        "codelist",
        "Controlled Terms"
      ],
      "fact_misses": [],
      "answer_preview": "## SDTM 中的受控术语（Controlled Terminology, CT）及其对变量值的约束\n\n### 什么是受控术语（CT）\n\n受控术语（Controlled Terminology, CT）是 CDISC 维护的一套标准化值列表，用于约束 SDTM 数据集中特定变量的允许值。CT 由 CDISC 受控术语团队集中管理，支持所有 CDISC 基础标准（SDTM、CDASH、ADaM、SEND）以及疾病/治疗领域标准 **[Source: chapters/ch10_appendices.md — Appendix C: Controlled Terminology]**。\n\nCT 的来源包括：\n- **CDISC 发布的 codelist**（如 `(NY)` 表示 Yes/No 编码）\n- **外部编码系统**（如 MedDRA、ISO 3166-1 alpha-3）\n- **单一适用值**（如 DOMAIN 变量的值 \"PR\"）\n- **ISO 8601 格式**（用于日期/时间变量）\n\n**[Source: chapters/ch04_general_assumptions.md — 4.3.1 Controlled Terms, Codelist or Format Column]**\n\n### CT 如何约束变量值\n\n#### 1. 变量定义中的 CT 指定\n",
      "usage": {
        "prompt_tokens": 15668,
        "completion_tokens": 1143,
        "total_tokens": 16811
      },
      "model": "deepseek/deepseek-chat",
      "answer": "## SDTM 中的受控术语（Controlled Terminology, CT）及其对变量值的约束\n\n### 什么是受控术语（CT）\n\n受控术语（Controlled Terminology, CT）是 CDISC 维护的一套标准化值列表，用于约束 SDTM 数据集中特定变量的允许值。CT 由 CDISC 受控术语团队集中管理，支持所有 CDISC 基础标准（SDTM、CDASH、ADaM、SEND）以及疾病/治疗领域标准 **[Source: chapters/ch10_appendices.md — Appendix C: Controlled Terminology]**。\n\nCT 的来源包括：\n- **CDISC 发布的 codelist**（如 `(NY)` 表示 Yes/No 编码）\n- **外部编码系统**（如 MedDRA、ISO 3166-1 alpha-3）\n- **单一适用值**（如 DOMAIN 变量的值 \"PR\"）\n- **ISO 8601 格式**（用于日期/时间变量）\n\n**[Source: chapters/ch04_general_assumptions.md — 4.3.1 Controlled Terms, Codelist or Format Column]**\n\n### CT 如何约束变量值\n\n#### 1. 变量定义中的 CT 指定\n\n在域规范（spec.md）中，每个变量的 **Controlled Terms, Codelist or Format** 列指明了该变量的值约束方式：\n\n| 表示方式 | 含义 |\n|---------|------|\n| `(CodelistName)` | 引用 CDISC 发布的 codelist 名称（如 `(NY)`） |\n| `*` | 当前无 CDISC CT，但未来可能开发 |\n| `\"PR\"` | 单一适用值 |\n| `MedDRA` | 引用外部编码系统 |\n| ISO 8601 格式 | 日期/时间格式约束 |\n\n**[Source: chapters/ch04_general_assumptions.md — 4.3.1]**\n\n#### 2. 核心约束规则\n\n**a) 必须使用 CT 中的值**\n\n变量只能取 CT 中定义的允许值。例如：\n- `AESER`（严重不良事件标志）只能取 `Y` 或 `N`\n- `SEX`（性别）只能取 `M`、`F`、`U` 或 `UNDIFFERENTIATED`\n\n**b) 大小写必须与源 codelist 一致**\n\n术语的大小写必须与 CDISC codelist 或外部编码系统（如 MedDRA）中出现的完全一致 **[Source: chapters/ch04_general_assumptions.md — 4.3.2 Controlled Terminology Text Case]**。\n\n**c) 变量长度可优化**\n\n对于使用 CT 的变量，其长度可以设置为最长术语的长度，无需使用 200 字符的最大值 **[Source: chapters/ch04_general_assumptions.md — 4.2.9 Variable Lengths]**。\n\n#### 3. Define-XML 中的 CT 声明\n\n- 所有 CT 或其引用必须在 Define-XML 文档中包含\n- 研究中使用的所有允许值（无论是否在提交数据中出现）都应包含在 Define-XML 中\n- **空值不应包含在允许值集合中**——空值对于任何受控术语列表都是隐含允许的，除非变量是 \"Required\"（必需）的\n- 只有计划收集的值才应包含在 Define-XML 中（例如 `--PRESP` 变量关联 `(NY)` codelist，但只允许值 `\"Y\"`）\n\n**[Source: chapters/ch04_general_assumptions.md — 4.3.3 Controlled Terminology Values]**\n\n#### 4. Findings 类变量的特殊 CT 约束\n\n对于 Findings 类域，`--TESTCD` 和 `--TEST` 的值受 CT 约束：\n- `--TESTCD`：标准化或字典派生的短序列，最多 8 个字符\n- `--TEST`：测试的完整描述名称\n- 两者都受可用 CT 的约束\n\n**[Source: chapters/ch04_general_assumptions.md — 4.2.1.1 --TEST and --TESTCD Conventions]**\n\n#### 5. 特定域的 CT 关联\n\n某些域有专门的 CT 关联规则。例如：\n- **TR 域**：`TRTESTCD/TRTEST` 的值发布为 CT，某些测试值还关联了 `TRORRES` 的 codelist **[Source: domains/TR/assumptions.md — item_3]**\n- **TS 域**：某些试验总结参数关联了 `TSVAL` 的 codelist，接收方也可以指定自己的 CT **[Source: domains/TS/assumptions.md — item_8]**\n\n### 总结\n\n受控术语通过以下方式约束 SDTM 变量值：\n1. **定义允许值集合**——变量只能取 CT 中定义的值\n2. **强制大小写一致性**——必须使用源 codelist 中的大小写\n3. **通过 Define-XML 声明**——所有计划使用的值必须在元数据中声明\n4. **支持外部编码系统**——如 MedDRA、ISO 标准等\n5. **为 Findings 类变量提供标准化测试名称**——`--TESTCD` 和 `--TEST` 受 CT 约束\n\nCT 确保了跨研究、跨提交的数据一致性，使监管机构能够高效地审查和比较不同来源的数据。",
      "elapsed_s": 11.27
    },
    {
      "id": "q36",
      "category": "concept",
      "question": "What are the timing variables in SDTM (such as --DTC, --STDTC, --ENDTC) and how are they structured across domains?",
      "source_recall": 1.0,
      "source_hits": [
        "chapters/ch04"
      ],
      "source_misses": [],
      "top5_sources": [
        "chapters/ch04_general_assumptions.md",
        "model/01_concepts_and_terms.md",
        "chapters/ch04_general_assumptions.md",
        "model/02_observation_classes.md",
        "domains/BE/assumptions.md"
      ],
      "top5_similarities": [
        0.6533,
        0.7001,
        0.6573,
        0.6517,
        0.6647
      ],
      "fact_recall": 1.0,
      "fact_hits": [
        "DTC",
        "STDTC",
        "ENDTC",
        "Timing"
      ],
      "fact_misses": [],
      "answer_preview": "## SDTM 中的时间变量（Timing Variables）及其跨域结构\n\n### 一、核心时间变量\n\nSDTM 定义了三个核心日期/时间变量，适用于所有基于三大通用观察类（Interventions、Events、Findings）的域：\n\n| 变量 | 标签 | 类型 | 格式 | 适用类 |\n|------|------|------|------|--------|\n| **--DTC** | Date/Time of Collection | Char | ISO 8601 | 所有三类 |\n| **--STDTC** | Start Date/Time of Observation | Char | ISO 8601 | **仅** Interventions 和 Events（Findings 类中不使用） |\n| **--ENDTC** | End Date/Time of Observation | Char | ISO 8601 | 所有三类 |\n\n**[Source: model/02_observation_classes.md — 3.1.5 Timing Variables for All Classes]**\n\n### 二、跨域使用规则\n\n#### 2.1 Findings 类的特殊规则\n\n在 Findings 类域中，**--STDTC 不得使用",
      "usage": {
        "prompt_tokens": 15634,
        "completion_tokens": 1461,
        "total_tokens": 17095
      },
      "model": "deepseek/deepseek-chat",
      "answer": "## SDTM 中的时间变量（Timing Variables）及其跨域结构\n\n### 一、核心时间变量\n\nSDTM 定义了三个核心日期/时间变量，适用于所有基于三大通用观察类（Interventions、Events、Findings）的域：\n\n| 变量 | 标签 | 类型 | 格式 | 适用类 |\n|------|------|------|------|--------|\n| **--DTC** | Date/Time of Collection | Char | ISO 8601 | 所有三类 |\n| **--STDTC** | Start Date/Time of Observation | Char | ISO 8601 | **仅** Interventions 和 Events（Findings 类中不使用） |\n| **--ENDTC** | End Date/Time of Observation | Char | ISO 8601 | 所有三类 |\n\n**[Source: model/02_observation_classes.md — 3.1.5 Timing Variables for All Classes]**\n\n### 二、跨域使用规则\n\n#### 2.1 Findings 类的特殊规则\n\n在 Findings 类域中，**--STDTC 不得使用**。--DTC 用于记录标本采集的日期/时间，而非数据记录的日期/时间。\n\n| 采集类型 | --DTC | --STDTC | --ENDTC |\n|---------|-------|---------|---------|\n| 单点采集 | X | | |\n| 区间采集（如 24 小时尿液） | X | | X |\n\n**[Source: chapters/ch04_general_assumptions.md — 4.4.8 Date and Time Reported in a Domain Based on Findings]**\n\n#### 2.2 Events 类的规则\n\n- **--STDTC**：记录事件的开始日期/时间\n- **--ENDTC**：记录事件的结束日期/时间（如果与开始相同，可为空）\n- **--DTC**：记录数据收集的日期/时间\n\n**例外 — BE（Biospecimen Events）域**：BEDTC 不记录数据收集日期，而是记录**标本采集**日期/时间，与 Findings 类中 --DTC 的用法保持一致。\n\n**[Source: domains/BE/assumptions.md — item_6]**\n\n#### 2.3 DS（Disposition）域的规则\n\nDS 域中的事件没有结束日期——处置事件发生在单一日期/时间，不跨越时间区间。因此：\n- **DSSTDTC** 是预期的，用于记录处置事件的日期/时间\n- **EPOCH** 基于 DSSTDTC 确定\n\n**[Source: domains/DS/assumptions.md — item_4]**\n\n### 三、EPOCH 变量的赋值规则\n\n| 观察类 | EPOCH 基于的变量 |\n|--------|-----------------|\n| **Findings** | --DTC（测试日期或标本采集日期） |\n| **Interventions** | --STDTC（干预开始日期） |\n| **Events** | --STDTC（事件开始日期） |\n\n**例外**：对于基于区间标本采集的 Findings（采集跨越两个 Epoch），可基于 --ENDTC 赋值。\n\nEPOCH 不应被推算；应尽可能基于 CRF 指令和结构赋值。如果无法确定，EPOCH 应为空。对于受试者参与研究前发生的事件/干预/检查，EPOCH 应为空。\n\n**[Source: chapters/ch04_general_assumptions.md — 4.1.3.1 EPOCH Variable Guidance]**\n\n### 四、日期/时间格式\n\n所有 DTC 变量使用 **ISO 8601 扩展格式**：\n\n```\nYYYY-MM-DDThh:mm:ss(.n+)?(((+|-)hh:mm)|Z)?\n```\n\n- 日期部分：`YYYY-MM-DD`（连字符分隔）\n- 时间部分：`hh:mm:ss`（冒号分隔），前加 `T`\n- 可选：秒的小数部分、时区偏移\n- **不允许空格**\n- 不允许使用 ISO 8601 基本格式（无分隔符）\n\n**[Source: chapters/ch04_general_assumptions.md — 4.4.1 Formats for Date/Time Variables]**\n\n### 五、研究日（Study Day）变量\n\n| 变量 | 标签 | 适用类 |\n|------|------|--------|\n| **--DY** | Study Day of Visit/Collection/Exam | 所有三类 |\n| **--STDY** | Study Day of Start of Observation | 仅 Interventions 和 Events |\n| **--ENDY** | Study Day of End of Observation | 所有三类 |\n\n**计算规则**：\n- RFSTDTC = 研究日 1\n- RFSTDTC 之后的日期：DY = 日期 − RFSTDTC + 1\n- RFSTDTC 之前的日期：DY = 日期 − RFSTDTC（无第 0 天）\n- 部分日期不得用于推算研究日\n\n**[Source: chapters/ch04_general_assumptions.md — 4.4.4 Use of the Study Day Variables]**\n\n### 六、其他时间变量\n\nSDTM 还定义了以下时间变量（共 48 个），适用于所有三大观察类：\n\n**访视变量**：VISITNUM, VISIT, VISITDY, TAETORD, EPOCH\n\n**时间点变量**：--TPT, --TPTNUM, --ELTM, --TPTREF, --RFTDTC\n\n**相对时间变量**：--STRF, --ENRF, --EVLINT, --EVINTX, --STRTPT, --STTPT, --ENRTPT, --ENTPT\n\n**持续时间变量**：--DUR（ISO 8601 格式）\n\n**[Source: model/02_observation_classes.md — 3.1.5 Timing Variables for All Classes]**\n\n### 七、变量命名约定\n\n时间变量使用两字符域标识符作为前缀（如 LBDTC、AESTDTC、VSENDTC）。例外情况包括 VISIT、VISITNUM、VISITDY 等通用合并键变量，它们不使用域前缀。\n\n**[Source: chapters/ch04_general_assumptions.md — 4.2.2 Two-character Domain Identifier]**\n\n### 八、总结：跨域时间变量结构\n\n| 观察类 | 核心时间变量 | 特殊规则 |\n|--------|-------------|---------|\n| **Interventions** | --STDTC（开始）、--ENDTC（结束）、--DTC（收集日期） | 标准用法 |\n| **Events** | --STDTC（开始）、--ENDTC（结束）、--DTC（收集日期） | DS 无结束日期；BE 的 --DTC 用于标本采集 |\n| **Findings** | --DTC（采集日期）、--ENDTC（区间结束） | **--STDTC 不使用**；--DTC 用于标本采集日期 |",
      "elapsed_s": 13.11
    },
    {
      "id": "q37",
      "category": "concept",
      "question": "What are the Special-Purpose datasets in SDTM and which domains fall into this category?",
      "source_recall": 1.0,
      "source_hits": [
        "model/03_special_purpose_domains.md"
      ],
      "source_misses": [],
      "top5_sources": [
        "model/01_concepts_and_terms.md",
        "model/02_observation_classes.md",
        "model/03_special_purpose_domains.md",
        "chapters/ch04_general_assumptions.md",
        "chapters/ch04_general_assumptions.md"
      ],
      "top5_similarities": [
        0.666,
        0.6624,
        0.657,
        0.5978,
        0.6637
      ],
      "fact_recall": 1.0,
      "fact_hits": [
        "Special-Purpose",
        "DM",
        "CO",
        "SE"
      ],
      "fact_misses": [],
      "answer_preview": "根据 SDTM 模型和 SDTMIG v3.4，**Special-Purpose Domains（特殊用途域）** 是与三大通用观察类（Interventions、Events、Findings）并列的一类标准化数据集，用于表示研究中收集的特定重要信息 **[Source: model/03_special_purpose_domains.md]**。\n\n以下域被明确归类为 Special-Purpose Domains：\n\n| 域代码 | 域名 | 说明 |\n|--------|------|------|\n| **CO** | Comments | 包含与一个或多个 SDTM 域数据相关的自由文本评论 **[Source: domains/CO/assumptions.md]** |\n| **DM** | Demographics | 描述研究中每个受试者的一组基本标准变量，是所有人类临床受试者其他观察的父域 **[Source: terminology/core/general_part4.md]** |\n| **SE** | Subject Elements | 每个受试者每个实际 Element 一条记录 **[Source: chapters/ch03_submitting_data.md]** |\n| **SM** | Subject Disease Milesto",
      "usage": {
        "prompt_tokens": 16578,
        "completion_tokens": 380,
        "total_tokens": 16958
      },
      "model": "deepseek/deepseek-chat",
      "answer": "根据 SDTM 模型和 SDTMIG v3.4，**Special-Purpose Domains（特殊用途域）** 是与三大通用观察类（Interventions、Events、Findings）并列的一类标准化数据集，用于表示研究中收集的特定重要信息 **[Source: model/03_special_purpose_domains.md]**。\n\n以下域被明确归类为 Special-Purpose Domains：\n\n| 域代码 | 域名 | 说明 |\n|--------|------|------|\n| **CO** | Comments | 包含与一个或多个 SDTM 域数据相关的自由文本评论 **[Source: domains/CO/assumptions.md]** |\n| **DM** | Demographics | 描述研究中每个受试者的一组基本标准变量，是所有人类临床受试者其他观察的父域 **[Source: terminology/core/general_part4.md]** |\n| **SE** | Subject Elements | 每个受试者每个实际 Element 一条记录 **[Source: chapters/ch03_submitting_data.md]** |\n| **SM** | Subject Disease Milestones | 每个受试者每个疾病里程碑一条记录 **[Source: chapters/ch03_submitting_data.md]** |\n| **SV** | Subject Visits | 每个受试者每个实际或计划访视一条记录 **[Source: chapters/ch03_submitting_data.md]** |\n\n**注意：** 关系数据集（如 RELREC、SUPPQUAL、RELSUB、RELSPEC）在 SDTM 模型中被归类为 **Relationship Datasets**，而非 Special-Purpose Domains **[Source: model/06_relationship_datasets.md]**。同样，试验设计数据集（如 TA、TE、TV、TS 等）属于 **Trial Design Model Datasets**，研究参考数据集（如 DI、OI）属于 **Study References**，它们均不属于 Special-Purpose 类别。",
      "elapsed_s": 5.01
    },
    {
      "id": "q38",
      "category": "concept",
      "question": "How are SDTM domain abbreviation codes assigned? What are the rules for the two-character domain code?",
      "source_recall": 1.0,
      "source_hits": [
        "chapters/ch02"
      ],
      "source_misses": [],
      "top5_sources": [
        "chapters/ch04_general_assumptions.md",
        "domains/SV/spec.md",
        "domains/FT/spec.md",
        "domains/EX/spec.md",
        "domains/IE/spec.md"
      ],
      "top5_similarities": [
        0.6759,
        0.6703,
        0.6691,
        0.6691,
        0.6689
      ],
      "fact_recall": 0.5,
      "fact_hits": [
        "DOMAIN"
      ],
      "fact_misses": [
        "two-character"
      ],
      "answer_preview": "## SDTM 域缩写代码的分配规则\n\n### 1. 基本规则\n\n每个 SDTM 域数据集由一个唯一的 **2 字符代码**（DOMAIN 值）标识。该代码在 4 个地方使用：\n1. 作为数据集名称\n2. 作为该数据集中 DOMAIN 变量的值\n3. 作为该数据集中大多数变量名的前缀\n4. 作为关系表中 RDOMAIN 变量的值\n\n**[Source: chapters/ch02_fundamentals.md]**\n\n### 2. 字符限制\n\n- **第一个字符**：仅限 A-Z（大写字母）\n- **第二个字符**：仅限 A-Z（大写字母）或 0-9（数字）\n- **不允许使用其他任何字符**\n\n此限制是为了兼容 SAS v5 传输文件格式以及电子通用技术文件（eCTD）的文件命名要求。\n\n**[Source: chapters/ch04_general_assumptions.md — §4.2.2]**\n\n### 3. 标准域代码\n\n标准域代码由 CDISC 定义，收录在 **SDTM Domain Abbreviation codelist（C66734）** 中，可在 CDISC 受控术语网站查阅。\n\n**[Source: chapters/ch04_general_assumptions.md — §4.1.6]**\n\n### 4. 自定义域代码\n\n为避免与 CDISC",
      "usage": {
        "prompt_tokens": 10885,
        "completion_tokens": 670,
        "total_tokens": 11555
      },
      "model": "deepseek/deepseek-chat",
      "answer": "## SDTM 域缩写代码的分配规则\n\n### 1. 基本规则\n\n每个 SDTM 域数据集由一个唯一的 **2 字符代码**（DOMAIN 值）标识。该代码在 4 个地方使用：\n1. 作为数据集名称\n2. 作为该数据集中 DOMAIN 变量的值\n3. 作为该数据集中大多数变量名的前缀\n4. 作为关系表中 RDOMAIN 变量的值\n\n**[Source: chapters/ch02_fundamentals.md]**\n\n### 2. 字符限制\n\n- **第一个字符**：仅限 A-Z（大写字母）\n- **第二个字符**：仅限 A-Z（大写字母）或 0-9（数字）\n- **不允许使用其他任何字符**\n\n此限制是为了兼容 SAS v5 传输文件格式以及电子通用技术文件（eCTD）的文件命名要求。\n\n**[Source: chapters/ch04_general_assumptions.md — §4.2.2]**\n\n### 3. 标准域代码\n\n标准域代码由 CDISC 定义，收录在 **SDTM Domain Abbreviation codelist（C66734）** 中，可在 CDISC 受控术语网站查阅。\n\n**[Source: chapters/ch04_general_assumptions.md — §4.1.6]**\n\n### 4. 自定义域代码\n\n为避免与 CDISC 未来定义的标准域代码冲突，**以 X、Y、Z 开头的域代码**已保留用于创建自定义域。第二个位置可以使用任何字母或数字。\n\n> 注意：使用 X、Y 或 Z 开头的代码是可选的，并非自定义域的强制要求。\n\n**[Source: chapters/ch04_general_assumptions.md — §4.1.6]**\n\n### 5. 变量命名中的前缀规则\n\n大多数变量名以 2 字符域标识符为前缀（例如 AE 域中的 AETERM、AESER）。以下变量是**例外**，不使用域前缀：\n\n- **必需标识符**：STUDYID、DOMAIN、USUBJID\n- **常用分组和合并键**：VISIT、VISITNUM、VISITDY\n- **DM 域**中除 DMDTC 和 DMDY 之外的所有变量\n- **RELREC 和 SUPPQUAL** 中的所有变量\n- **Comments 域和 Trial Design 数据集**中的部分变量\n\n而 `--SEQ` 以及可选的标识符 `--GRPID` 和 `--REFID` 则**使用前缀**，因为它们可能用作跨域关联观察的键。\n\n**[Source: chapters/ch04_general_assumptions.md — §4.2.2]**\n\n### 6. DOMAIN 变量属性\n\n| 属性 | 值 |\n|------|-----|\n| **Label** | Domain Abbreviation |\n| **Type** | Char |\n| **Role** | Identifier |\n| **Core** | Req（必需） |\n| **CDISC Notes** | 与域最相关的两个字符缩写。该缩写也用作变量名前缀，以确保数据集合并时的唯一性。 |\n\n**[Source: domains/SV/spec.md — DOMAIN]**",
      "elapsed_s": 7.17
    },
    {
      "id": "q39",
      "category": "concept",
      "question": "What is the Findings About observation class and how does it differ from the standard Findings class?",
      "source_recall": 1.0,
      "source_hits": [
        "model/02_observation_classes.md"
      ],
      "source_misses": [],
      "top5_sources": [
        "domains/BS/spec.md",
        "chapters/ch08_relationships.md",
        "domains/CP/spec.md",
        "model/02_observation_classes.md",
        "domains/CV/spec.md"
      ],
      "top5_similarities": [
        0.7123,
        16.7017,
        0.7123,
        15.7114,
        0.7123
      ],
      "fact_recall": 0.5,
      "fact_hits": [
        "Findings About"
      ],
      "fact_misses": [
        "FAOBJ"
      ],
      "answer_preview": "## Findings About 观察类及其与标准 Findings 类的区别\n\n### Findings About 观察类定义\n\nFindings About 是 Findings（发现）观察类的一个**子类型**，用于记录与 Interventions（干预）或 Events（事件）观察类相关的发现。它使用 Findings 通用观察类的变量，并额外增加了 **--OBJ** 变量。[Source: model/02_observation_classes.md]\n\n### 核心区别\n\n| 维度 | 标准 Findings 类 | Findings About 子类型 |\n|------|-----------------|----------------------|\n| **观察对象** | 直接对受试者进行的测量、测试或评估（如实验室检查、生命体征） | 对某个事件或干预的**属性/特征**进行的测量或评估 |\n| **关键变量** | --TESTCD / --TEST（描述测量内容） | --TESTCD / --TEST + **--OBJ**（描述被评估的事件或干预） |\n| **典型示例** | 血压值、血常规结果、心电图参数 | 不良事件的严重程度、症状的发生频率、疼痛强度评分 |\n\n### --OBJ 变量的作用\n\n--OBJ（Observation O",
      "usage": {
        "prompt_tokens": 13862,
        "completion_tokens": 790,
        "total_tokens": 14652
      },
      "model": "deepseek/deepseek-chat",
      "answer": "## Findings About 观察类及其与标准 Findings 类的区别\n\n### Findings About 观察类定义\n\nFindings About 是 Findings（发现）观察类的一个**子类型**，用于记录与 Interventions（干预）或 Events（事件）观察类相关的发现。它使用 Findings 通用观察类的变量，并额外增加了 **--OBJ** 变量。[Source: model/02_observation_classes.md]\n\n### 核心区别\n\n| 维度 | 标准 Findings 类 | Findings About 子类型 |\n|------|-----------------|----------------------|\n| **观察对象** | 直接对受试者进行的测量、测试或评估（如实验室检查、生命体征） | 对某个事件或干预的**属性/特征**进行的测量或评估 |\n| **关键变量** | --TESTCD / --TEST（描述测量内容） | --TESTCD / --TEST + **--OBJ**（描述被评估的事件或干预） |\n| **典型示例** | 血压值、血常规结果、心电图参数 | 不良事件的严重程度、症状的发生频率、疼痛强度评分 |\n\n### --OBJ 变量的作用\n\n--OBJ（Observation Object）是 Findings About 独有的变量，其角色为 **Record Qualifier**。它与 --TESTCD/--TEST 共同描述观察的主题：\n\n- **--TESTCD/--TEST**：描述测量/评估的内容（如 Severity、Occurrence）\n- **--OBJ**：描述该测量/评估所针对的事件或干预（如 \"Headache\"、\"Study Drug\"）\n\n两者都必须填充才能完整描述一条记录。[Source: model/02_observation_classes.md]\n\n### 何时使用 Findings About（三条标准）\n\n根据 SDTMIG v3.4 §6.4.1，当数据满足以下任一标准时，应使用 Findings About 结构：\n\n**标准 1：数据或观察的时点与关联的事件/干预的整体时点不同**\n- 例如：不良事件的症状在多个时间点重复测量，而 AE 记录本身只有一个起止日期\n- 对事件\"片段\"（snapshots/slices）的评估，而非对事件整体的评估\n\n**标准 2：对事件或干预的观察需要超过 1 个变量来表示，无法作为补充限定符（Supplemental Qualifier）纳入父记录**\n\n**标准 3：指示预设 AE 发生的数据或信息**\n\n[Source: domains/FA/assumptions.md]\n\n### 不应在 FA 域中使用的限定符\n\n以下限定符通常不应在 Findings About 域中使用：\n- **--BODSYS**（身体系统）\n- **--MODIFY**（修改词）\n- **--SEV**（严重程度/强度）\n- **--TOXGR**（毒性等级）\n\n[Source: domains/FA/assumptions.md]\n\n### 实际应用示例\n\n当收集的数据符合某个限定符变量（参见 SDTM Sections 3.1.1、3.1.2 和 3.1.3）并在 FA 域中表示时，该变量的名称应作为 FATESTCD 的值使用。例如：\n\n| FATESTCD | FATEST | 说明 |\n|----------|--------|------|\n| OCCUR | Occurrence Indicator | 发生指示 |\n| SEV | Severity/Intensity | 严重程度/强度 |\n| TOXGR | Toxicity Grade | 毒性等级 |\n\n[Source: model/02_observation_classes.md]\n\n### 总结\n\n**标准 Findings 类**回答的是\"受试者的测量值是多少？\"，而 **Findings About 子类型**回答的是\"这个事件/干预的某个属性是什么？\"。前者直接对受试者进行测量，后者则是对已记录的事件或干预进行二次评估。",
      "elapsed_s": 8.91
    },
    {
      "id": "q40",
      "category": "concept",
      "question": "What is the difference between collected data and derived data in SDTM, and how is the origin of a variable value indicated?",
      "source_recall": 1.0,
      "source_hits": [
        "chapters/ch04"
      ],
      "source_misses": [],
      "top5_sources": [
        "chapters/ch04_general_assumptions.md",
        "model/01_concepts_and_terms.md",
        "chapters/ch01_introduction.md",
        "model/06_relationship_datasets.md",
        "chapters/ch04_general_assumptions.md"
      ],
      "top5_similarities": [
        0.641,
        0.6331,
        0.5626,
        0.5606,
        0.5626
      ],
      "fact_recall": 1.0,
      "fact_hits": [
        "Collected",
        "Derived",
        "Origin"
      ],
      "fact_misses": [],
      "answer_preview": "## SDTM 中收集数据与衍生数据的区别及变量值来源的标识方式\n\n### 收集数据 (Collected Data) 与衍生数据 (Derived Data) 的区别\n\n在 SDTM 中，数据根据其来源分为两类：\n\n| 数据类型 | 定义 | 示例 |\n|---------|------|------|\n| **收集数据 (Collected Data)** | 直接从 CRF、供应商或设备获取的数据，未经额外计算或转换 | CRF 上记录的不良事件术语、实验室仪器输出的原始结果 |\n| **衍生数据 (Derived Data)** | 通过计算、转换或逻辑规则从其他数据派生出的值 | 总分（问卷各条目之和）、相对日（--DY）、标准化结果（--STRESC） |\n\n**关键规则**：中央实验室按其程序推导的值被视为收集数据而非衍生数据 **[Source: domains/LB/assumptions.md item_6]**。同样，QRS 问卷的总分/小计分数，即使由赞助方操作性地推导，也视为收集数据，但需通过 --DRVFL 标记 **[Source: domains/FT/assumptions.md item_4]**。\n\n### 变量值来源的标识方式\n\n变量值的来源通过 **Define-XML 文件中的 Origin 元数据** 来标识 **[Source: ch",
      "usage": {
        "prompt_tokens": 17386,
        "completion_tokens": 705,
        "total_tokens": 18091
      },
      "model": "deepseek/deepseek-chat",
      "answer": "## SDTM 中收集数据与衍生数据的区别及变量值来源的标识方式\n\n### 收集数据 (Collected Data) 与衍生数据 (Derived Data) 的区别\n\n在 SDTM 中，数据根据其来源分为两类：\n\n| 数据类型 | 定义 | 示例 |\n|---------|------|------|\n| **收集数据 (Collected Data)** | 直接从 CRF、供应商或设备获取的数据，未经额外计算或转换 | CRF 上记录的不良事件术语、实验室仪器输出的原始结果 |\n| **衍生数据 (Derived Data)** | 通过计算、转换或逻辑规则从其他数据派生出的值 | 总分（问卷各条目之和）、相对日（--DY）、标准化结果（--STRESC） |\n\n**关键规则**：中央实验室按其程序推导的值被视为收集数据而非衍生数据 **[Source: domains/LB/assumptions.md item_6]**。同样，QRS 问卷的总分/小计分数，即使由赞助方操作性地推导，也视为收集数据，但需通过 --DRVFL 标记 **[Source: domains/FT/assumptions.md item_4]**。\n\n### 变量值来源的标识方式\n\n变量值的来源通过 **Define-XML 文件中的 Origin 元数据** 来标识 **[Source: chapters/ch04_general_assumptions.md §4.1.8.1]**：\n\n1. **Origin 元数据** 用于明确告知审评员数据来源，其允许值由 Define-XML 规范定义，包括：\n   - **Collected**（收集）：数据来自 CRF、供应商或设备\n   - **Derived**（衍生）：数据通过算法推导得出\n   - **Assigned**（分配）：数据由系统或规则分配\n\n2. **记录级 Origin**：当同一变量中同时包含收集值和衍生值时（如 QS 域中既有 CRF 收集的单项得分，也有计算得出的总分），必须在 Define-XML 中使用 **值级元数据 (Value-Level Metadata)** 来描述 Origin **[Source: chapters/ch04_general_assumptions.md §4.1.8.2]**。\n\n3. **SUPP-- 数据集中的 QORIG**：在补充限定词数据集中，`QORIG` 变量专门用于指示 QVAL 的来源，取值如 \"CRF\"、\"Assigned\"、\"Derived\" 等 **[Source: chapters/ch08_relationships.md §8.4.1]**。\n\n4. **--DRVFL 衍生标记**：对于 QRS 域中操作性推导的记录，使用 `--DRVFL`（Derived Flag）标记为 \"Y\"。但来自中央供应商/供应商的总分，其 `--DRVFL` 应为空 **[Source: domains/FT/assumptions.md item_4.b.i]**。\n\n### 总结\n\n| 特征 | 收集数据 | 衍生数据 |\n|------|---------|---------|\n| 来源 | CRF、供应商、设备 | 计算、转换、逻辑规则 |\n| Origin 值 | \"Collected\" | \"Derived\" |\n| 标识位置 | Define-XML Origin 元数据 | Define-XML Origin 元数据 + 可选 --DRVFL |\n| 特殊规则 | 中央实验室推导值视为收集 | 操作性推导需标记 --DRVFL = \"Y\" |",
      "elapsed_s": 9.11
    },
    {
      "id": "q41",
      "category": "concept",
      "question": "What are the Trial Design Model datasets in SDTM and what kind of study-level information do they capture?",
      "source_recall": 1.0,
      "source_hits": [
        "model/05_study_level_data.md"
      ],
      "source_misses": [],
      "top5_sources": [
        "model/01_concepts_and_terms.md",
        "chapters/ch04_general_assumptions.md",
        "model/05_study_level_data.md",
        "domains/TA/assumptions.md",
        "domains/TI/assumptions.md"
      ],
      "top5_similarities": [
        0.6589,
        0.66,
        0.8164,
        0.6195,
        0.6484
      ],
      "fact_recall": 0.75,
      "fact_hits": [
        "TA",
        "TE",
        "TV"
      ],
      "fact_misses": [
        "Trial Design"
      ],
      "answer_preview": "## SDTM 中的试验设计模型数据集\n\nSDTM 包含两类研究级数据：**试验设计数据**和**研究参考数据**。**[Source: model/05_study_level_data.md]**\n\n### 试验设计模型数据集\n\n试验设计模型提供了一种标准化方式来描述临床试验的计划实施方面，这些方面通常体现在研究设计图表中。**[Source: domains/TA/assumptions.md]**\n\n| 数据集 | 名称 | 描述 |\n|--------|------|------|\n| **TA** | Trial Arms（试验组） | 描述试验中每个组的计划路径，包括组、时期和元素的组合 |\n| **TE** | Trial Elements（试验元素） | 定义可重用的试验构建块（如筛选期、治疗期、随访期） |\n| **TV** | Trial Visits（试验访视） | 描述计划的访视安排 |\n| **TD** | Trial Disease Assessments（试验疾病评估） | 描述疾病评估的计划安排 |\n| **TM** | Trial Disease Milestones（试验疾病里程碑） | 描述疾病相关里程碑（如疾病进展、缓解） |\n| **TI** | Trial Inclusion/Exclusion Criteria（试验入排标准） | 包",
      "usage": {
        "prompt_tokens": 16463,
        "completion_tokens": 668,
        "total_tokens": 17131
      },
      "model": "deepseek/deepseek-chat",
      "answer": "## SDTM 中的试验设计模型数据集\n\nSDTM 包含两类研究级数据：**试验设计数据**和**研究参考数据**。**[Source: model/05_study_level_data.md]**\n\n### 试验设计模型数据集\n\n试验设计模型提供了一种标准化方式来描述临床试验的计划实施方面，这些方面通常体现在研究设计图表中。**[Source: domains/TA/assumptions.md]**\n\n| 数据集 | 名称 | 描述 |\n|--------|------|------|\n| **TA** | Trial Arms（试验组） | 描述试验中每个组的计划路径，包括组、时期和元素的组合 |\n| **TE** | Trial Elements（试验元素） | 定义可重用的试验构建块（如筛选期、治疗期、随访期） |\n| **TV** | Trial Visits（试验访视） | 描述计划的访视安排 |\n| **TD** | Trial Disease Assessments（试验疾病评估） | 描述疾病评估的计划安排 |\n| **TM** | Trial Disease Milestones（试验疾病里程碑） | 描述疾病相关里程碑（如疾病进展、缓解） |\n| **TI** | Trial Inclusion/Exclusion Criteria（试验入排标准） | 包含试验的所有入选和排除标准 |\n| **TS** | Trial Summary（试验摘要） | 描述试验的特征和关键参数（如设计类型、剂量、对照类型等） |\n\n### 它们捕获的研究级信息\n\n这些数据集共同捕获以下类型的研究级信息：\n\n1. **试验设计结构**：时期（Epoch）、组（Arm）、元素（Element）的定义及其关系，包括受试者在试验中的计划路径。**[Source: domains/TA/assumptions.md]**\n\n2. **访视计划**：计划的访视时间安排。**[Source: INDEX.md]**\n\n3. **入排标准**：受试者参与试验的资格标准。TI 包含所有入选和排除标准，而 IE 域（受试者级）仅记录受试者未满足的标准。**[Source: domains/TI/assumptions.md]**\n\n4. **试验摘要参数**：使用 TSPARMCD/TSPARM（如 AGEMIN、AGEMAX、DOSE、DOSFRM、DOSFRQ、CONTROL TYPE 等）描述试验的关键特征。**[Source: terminology/core/trial_design.md]**\n\n5. **疾病评估和里程碑**：计划进行的疾病评估和需要记录的疾病里程碑事件。\n\n### 关键概念\n\n- **时期（Epoch）**：受试者参与试验的计划时间段，服务于试验整体中的某个目的（如治疗期、洗脱期、随访期）。**[Source: domains/TA/assumptions.md]**\n- **组（Arm）**：通过试验的计划路径，覆盖整个试验时间。**[Source: domains/TA/assumptions.md]**\n- **元素（Element）**：可重用的试验构建块，可以出现在不同组的不同时期中。**[Source: domains/TE/examples.md]**\n\n这些数据集使审评人员能够快速清晰地理解临床试验的设计，比较不同试验的设计，并在数据仓库中搜索具有特定特征的临床试验。**[Source: domains/TA/assumptions.md]**",
      "elapsed_s": 7.73
    },
    {
      "id": "q16",
      "category": "mixed",
      "question": "What values are allowed for AESEV and what is its codelist code?",
      "source_recall": 1.0,
      "source_hits": [
        "domains/AE/spec.md",
        "terminology/core/ae.md"
      ],
      "source_misses": [],
      "top5_sources": [
        "terminology/core/ae.md",
        "domains/AE/assumptions.md",
        "domains/DM/examples.md",
        "domains/AE/spec.md",
        "chapters/ch04_general_assumptions.md"
      ],
      "top5_similarities": [
        0.3821,
        0.6134,
        8.5566,
        0.602,
        7.5799
      ],
      "fact_recall": 1.0,
      "fact_hits": [
        "C66769",
        "MILD",
        "MODERATE",
        "SEVERE"
      ],
      "fact_misses": [],
      "answer_preview": "根据检索到的上下文，AESEV（Severity/Intensity）的受控术语（Controlled Terms）为 **C66769**，即 \"Severity/Intensity Scale for Adverse Events\"。\n\n该 codelist 允许的值为：\n\n| CDISC Submission Value | CDISC Synonym(s) | CDISC Definition |\n|------------------------|------------------|------------------|\n| MILD | 1; Grade 1 | A type of adverse event that is usually transient and may require only minimal treatment or therapeutic intervention. The event does not generally interfere with usual activities of daily living. |\n| MODERATE | 2; Grade 2 | A type of adverse event that is usually alleviated with additional specific therapeu",
      "usage": {
        "prompt_tokens": 15350,
        "completion_tokens": 305,
        "total_tokens": 15655
      },
      "model": "deepseek/deepseek-chat",
      "answer": "根据检索到的上下文，AESEV（Severity/Intensity）的受控术语（Controlled Terms）为 **C66769**，即 \"Severity/Intensity Scale for Adverse Events\"。\n\n该 codelist 允许的值为：\n\n| CDISC Submission Value | CDISC Synonym(s) | CDISC Definition |\n|------------------------|------------------|------------------|\n| MILD | 1; Grade 1 | A type of adverse event that is usually transient and may require only minimal treatment or therapeutic intervention. The event does not generally interfere with usual activities of daily living. |\n| MODERATE | 2; Grade 2 | A type of adverse event that is usually alleviated with additional specific therapeutic intervention. The event interferes with usual activities of daily living, causing discomfort but poses no significant or permanent risk of harm to the research participant. |\n| SEVERE | 3; Grade 3 | A type of adverse event that interrupts usual activities of daily living, or significantly affects clinical status, or may require intensive therapeutic intervention. |\n\n**来源：**\n- AESEV 变量定义（Label: Severity/Intensity, Type: Char, Controlled Terms: C66769, Role: Record Qualifier, Core: Perm）**[Source: domains/AE/spec.md -- AESEV]**\n- C66769 codelist 值列表（Extensible: No）**[Source: terminology/core/ae.md -- Severity/Intensity Scale for Adverse Events]**",
      "elapsed_s": 4.1
    },
    {
      "id": "q17",
      "category": "mixed",
      "question": "How are date and time variables formatted in SDTM and what suffix do they use?",
      "source_recall": 1.0,
      "source_hits": [
        "chapters/ch04"
      ],
      "source_misses": [],
      "top5_sources": [
        "chapters/ch04_general_assumptions.md",
        "model/01_concepts_and_terms.md",
        "chapters/ch04_general_assumptions.md",
        "chapters/ch04_general_assumptions.md",
        "chapters/ch01_introduction.md"
      ],
      "top5_similarities": [
        0.763,
        0.6154,
        0.6041,
        0.5795,
        9.6467
      ],
      "fact_recall": 1.0,
      "fact_hits": [
        "ISO 8601",
        "DTC"
      ],
      "fact_misses": [],
      "answer_preview": "在 SDTM 中，日期和时间变量使用 **ISO 8601 扩展格式** 表示，并采用 **DTC** 后缀。\n\n具体规则如下：\n\n- **格式**：日期和时间以 ISO 8601 扩展格式存储为字符（Char）类型。格式模板为 `YYYY-MM-DDThh:mm:ss(.n+)?(((+|-)hh:mm)|Z)?`，其中：\n  - `YYYY` = 四位年份\n  - `MM` = 两位月份（01-12）\n  - `DD` = 两位日期（01-31）\n  - `T` = 时间指示符\n  - `hh` = 两位小时（00-23，不允许 am/pm）\n  - `mm` = 两位分钟（00-59）\n  - `ss` = 两位秒（00-59）\n  - `(.n+)?` = 可选的小数秒\n  - `(((+|-)hh:mm)|Z)?` = 可选的时区\n  - **不允许空格**。 **[Source: chapters/ch04_general_assumptions.md -- 4.4.1 Formats for Date/Time Variables]**\n\n- **后缀**：用于日期/时间字符变量的 SDTM 片段是 **DTC**。 **[Source: chapters/ch04_general_assumptions.md -- 4.4.1 Formats for Date/Ti",
      "usage": {
        "prompt_tokens": 17046,
        "completion_tokens": 646,
        "total_tokens": 17692
      },
      "model": "deepseek/deepseek-chat",
      "answer": "在 SDTM 中，日期和时间变量使用 **ISO 8601 扩展格式** 表示，并采用 **DTC** 后缀。\n\n具体规则如下：\n\n- **格式**：日期和时间以 ISO 8601 扩展格式存储为字符（Char）类型。格式模板为 `YYYY-MM-DDThh:mm:ss(.n+)?(((+|-)hh:mm)|Z)?`，其中：\n  - `YYYY` = 四位年份\n  - `MM` = 两位月份（01-12）\n  - `DD` = 两位日期（01-31）\n  - `T` = 时间指示符\n  - `hh` = 两位小时（00-23，不允许 am/pm）\n  - `mm` = 两位分钟（00-59）\n  - `ss` = 两位秒（00-59）\n  - `(.n+)?` = 可选的小数秒\n  - `(((+|-)hh:mm)|Z)?` = 可选的时区\n  - **不允许空格**。 **[Source: chapters/ch04_general_assumptions.md -- 4.4.1 Formats for Date/Time Variables]**\n\n- **后缀**：用于日期/时间字符变量的 SDTM 片段是 **DTC**。 **[Source: chapters/ch04_general_assumptions.md -- 4.4.1 Formats for Date/Time Variables]**\n\n- **精度**：精度通过 ISO 8601 标准处理，可以从日期和/或时间值中组件的存在或缺失推断出来。缺失的组件通过右截断或连字符（对于缺失的中间组件）表示。如果日期和时间值完全缺失，则 SDTM 日期时间字段应为空。 **[Source: chapters/ch04_general_assumptions.md -- 4.4.2 Date/Time Precision]**\n\n- **示例**：\n  - 完整日期时间：`2003-12-15T13:14:17`\n  - 仅日期：`2003-12-15`\n  - 仅年月：`2003-12`\n  - 仅年份：`2003`\n  - 不确定区间：`2003-12-15T10:00/2003-12-15T10:30`（使用斜杠分隔） **[Source: chapters/ch04_general_assumptions.md -- 4.4.2 Date/Time Precision]**\n\n- **变量示例**：许多域都使用 DTC 变量，例如：\n  - **VSDTC**（生命体征）：Date/Time of Measurements，角色：Timing，核心：Exp **[Source: domains/VS/spec.md -- VSDTC]**\n  - **DMDTC**（人口学）：Date/Time of Collection，角色：Timing，核心：Perm **[Source: domains/DM/spec.md -- DMDTC]**\n  - **SSDTC**（受试者状态）：Date/Time of Assessment，角色：Timing，核心：Exp **[Source: domains/SS/spec.md -- SSDTC]**",
      "elapsed_s": 6.17
    },
    {
      "id": "q18",
      "category": "mixed",
      "question": "Explain the MedDRA coding chain for adverse events from verbatim term to dictionary term.",
      "source_recall": 1.0,
      "source_hits": [
        "domains/AE/spec.md",
        "domains/AE/assumptions.md"
      ],
      "source_misses": [],
      "top5_sources": [
        "domains/AE/spec.md",
        "domains/AE/spec.md",
        "domains/AE/spec.md",
        "domains/AE/spec.md",
        "chapters/ch04_general_assumptions.md"
      ],
      "top5_similarities": [
        0.6135,
        0.5646,
        0.5637,
        0.5579,
        0.6726
      ],
      "fact_recall": 1.0,
      "fact_hits": [
        "AETERM",
        "AEMODIFY",
        "AEDECOD",
        "Preferred Term"
      ],
      "fact_misses": [],
      "answer_preview": "## MedDRA 编码链：从原始术语到字典术语\n\n不良事件（AE）的 MedDRA 编码链在 SDTM 中通过一系列变量实现，从原始收集的术语逐步映射到字典中的标准层级术语。以下是完整的编码链：\n\n### 1. 原始术语（Verbatim Term）\n\n**AETERM** — Reported Term for the Adverse Event\n- **Type:** Char | **Role:** Topic | **Core:** Req\n- 这是直接从 CRF 收集的原始术语，是 AE 数据集的主题变量，必须有值。\n- 例如：`\"POUNDING HEADACHE\"` 或 `\"BACK PAIN FOR 5 HOURS\"`\n- **[Source: domains/AE/spec.md — AETERM]**\n\n### 2. 修改后术语（Modified Term，可选）\n\n**AEMODIFY** — Modified Reported Term\n- **Type:** Char | **Role:** Synonym Qualifier | **Core:** Perm\n- 如果申办方允许在编码前修改原始术语，则使用此变量。\n- 例如：`\"POUNDING HEADACHE\"` 修改为 `\"Headache\"`\n- **[Source: domains/AE/as",
      "usage": {
        "prompt_tokens": 14459,
        "completion_tokens": 1463,
        "total_tokens": 15922
      },
      "model": "deepseek/deepseek-chat",
      "answer": "## MedDRA 编码链：从原始术语到字典术语\n\n不良事件（AE）的 MedDRA 编码链在 SDTM 中通过一系列变量实现，从原始收集的术语逐步映射到字典中的标准层级术语。以下是完整的编码链：\n\n### 1. 原始术语（Verbatim Term）\n\n**AETERM** — Reported Term for the Adverse Event\n- **Type:** Char | **Role:** Topic | **Core:** Req\n- 这是直接从 CRF 收集的原始术语，是 AE 数据集的主题变量，必须有值。\n- 例如：`\"POUNDING HEADACHE\"` 或 `\"BACK PAIN FOR 5 HOURS\"`\n- **[Source: domains/AE/spec.md — AETERM]**\n\n### 2. 修改后术语（Modified Term，可选）\n\n**AEMODIFY** — Modified Reported Term\n- **Type:** Char | **Role:** Synonym Qualifier | **Core:** Perm\n- 如果申办方允许在编码前修改原始术语，则使用此变量。\n- 例如：`\"POUNDING HEADACHE\"` 修改为 `\"Headache\"`\n- **[Source: domains/AE/assumptions.md — item_2.b]**\n\n### 3. 最低级术语（Lowest Level Term, LLT）\n\n**AELLT** — Lowest Level Term\n- **Type:** Char | **Role:** Variable Qualifier | **Core:** Exp\n- MedDRA 层级中的最低级别，最接近原始术语的描述。\n- **[Source: chapters/ch04_general_assumptions.md — §4.3.5]**\n\n**AELLTCD** — Lowest Level Term Code\n- **Type:** Num | **Role:** Variable Qualifier | **Core:** Exp\n- LLT 对应的 MedDRA 代码。\n- **[Source: domains/AE/spec.md — AELLTCD]**\n\n### 4. 首选术语（Preferred Term, PT）— 核心编码结果\n\n**AEDECOD** — Dictionary-Derived Term\n- **Type:** Char | **Role:** Synonym Qualifier | **Core:** Req\n- 这是编码字典导出的标准术语，**必须**有值。在 MedDRA 中相当于首选术语（PT）。\n- 例如：`\"Headache\"`、`\"Back pain\"`、`\"Pulmonary embolism\"`\n- **[Source: domains/AE/spec.md — AEDECOD]**\n\n**AEPTCD** — Preferred Term Code\n- **Type:** Num | **Role:** Variable Qualifier | **Core:** Exp\n- PT 对应的 MedDRA 代码。\n- **[Source: domains/AE/spec.md — AEPTCD]**\n\n### 5. 高级术语（High Level Term, HLT）\n\n**AEHLT** — High Level Term\n- **Type:** Char | **Role:** Variable Qualifier | **Core:** Exp\n- MedDRA 层级中 PT 之上的级别。\n- **[Source: chapters/ch04_general_assumptions.md — §4.3.5]**\n\n**AEHLTCD** — High Level Term Code\n- **Type:** Num | **Role:** Variable Qualifier | **Core:** Exp\n- HLT 对应的 MedDRA 代码。\n- **[Source: domains/AE/spec.md — AEHLTCD]**\n\n### 6. 高级组术语（High Level Group Term, HLGT）\n\n**AEHLGT** — High Level Group Term\n- **Type:** Char | **Role:** Variable Qualifier | **Core:** Exp\n- MedDRA 层级中 HLT 之上的级别。\n- **[Source: chapters/ch04_general_assumptions.md — §4.3.5]**\n\n**AEHLGTCD** — High Level Group Term Code\n- **Type:** Num | **Role:** Variable Qualifier | **Core:** Exp\n- HLGT 对应的 MedDRA 代码。\n\n### 7. 系统器官分类（System Organ Class, SOC）\n\n**AEBODSYS** — Body System or Organ Class\n- **Type:** Char | **Role:** Record Qualifier | **Core:** Exp\n- 申办方分析所使用的 SOC（可能不是主要 SOC）。\n- 例如：`\"Nervous system disorders\"`、`\"Vascular disorders\"`\n- **[Source: domains/AE/assumptions.md — item_2.d]**\n\n**AEBDSYCD** — Body System or Organ Class Code\n- **Type:** Num | **Role:** Variable Qualifier | **Core:** Exp\n- SOC 对应的 MedDRA 代码。\n\n**AESOC** — Primary System Organ Class\n- **Type:** Char | **Role:** Variable Qualifier | **Core:** Exp\n- MedDRA 字典定义的主要 SOC。如果申办方分析使用的 SOC 就是主要 SOC，则 AEBODSYS 与 AESOC 相同。\n- **[Source: chapters/ch04_general_assumptions.md — §4.3.5]**\n\n**AESOCCD** — Primary System Organ Class Code\n- **Type:** Num | **Role:** Variable Qualifier | **Core:** Exp\n- 主要 SOC 对应的 MedDRA 代码。\n\n---\n\n### 编码链总结\n\n```\nAETERM (原始术语)\n    ↓ 可选修改\nAEMODIFY (修改后术语)\n    ↓ MedDRA 编码\nAELLT / AELLTCD (最低级术语)\n    ↓\nAEDECOD / AEPTCD (首选术语 PT) ← 核心编码结果，必须提供\n    ↓\nAEHLT / AEHLTCD (高级术语 HLT)\n    ↓\nAEHLGT / AEHLGTCD (高级组术语 HLGT)\n    ↓\nAEBODSYS / AEBDSYCD (分析用 SOC)\nAESOC / AESOCCD (主要 SOC)\n```\n\n### 实际数据示例\n\n| AETERM | AEMODIFY | AEDECOD | AEBODSYS |\n|--------|----------|---------|----------|\n| POUNDING HEADACHE | Headache | Headache | Nervous system disorders |\n| BACK PAIN FOR 5 HOURS | Back pain | Back pain | Musculoskeletal and connective tissue disorders |\n| PULMONARY EMBOLISM | | Pulmonary embolism | Vascular disorders |\n\n**[Source: domains/AE/examples.md — Example 1]**\n\n### 重要说明\n\n- 申办方必须在 Define-XML 中通过外部编码列表（external codelist）提供所使用的字典名称和版本（如 MedDRA 24.0）。\n- **[Source: domains/AE/spec.md — AEDECOD]**\n- 如果字典是多轴向的（multi-axial），AEBODSYS 应代表申办方分析所使用的 SOC，不一定是最主要 SOC。\n- **[Source: chapters/ch04_general_assumptions.md — §4.3.5]**",
      "elapsed_s": 11.79
    },
    {
      "id": "q19",
      "category": "mixed",
      "question": "What controlled terminology codelist is used for DSDECOD when DSCAT equals 'DISPOSITION EVENT', and list specific CDISC Submission Values from that codelist for reasons of non-completion.",
      "source_recall": 1.0,
      "source_hits": [
        "domains/DS/assumptions.md",
        "terminology/core/disposition.md"
      ],
      "source_misses": [],
      "top5_sources": [
        "domains/DS/spec.md",
        "terminology/core/disposition.md",
        "domains/DS/assumptions.md",
        "domains/DS/assumptions.md",
        "domains/DS/spec.md"
      ],
      "top5_similarities": [
        0.8036,
        0.634,
        0.7554,
        0.7186,
        0.7248
      ],
      "fact_recall": 0.5,
      "fact_hits": [
        "C66727"
      ],
      "fact_misses": [
        "NCOMPLT"
      ],
      "answer_preview": "根据 SDTMIG v3.4 的规定，当 **DSCAT = \"DISPOSITION EVENT\"** 时，**DSDECOD** 使用的受控术语 codelist 是 **Completion/Reason for Non-Completion (C66727)**，该 codelist 是可扩展的（Extensible: Yes）[Source: domains/DS/spec.md — DSDECOD][Source: domains/DS/assumptions.md — item_3]。\n\n以下是该 codelist 中用于表示**未完成原因**的 CDISC Submission Values（部分示例）：\n\n- **ADVERSE EVENT**\n- **DEATH**\n- **LOST TO FOLLOW-UP**\n- **PHYSICIAN DECISION**\n- **PREGNANCY**\n- **PROGRESSIVE DISEASE**\n- **PROTOCOL VIOLATION**\n- **STUDY TERMINATED BY SPONSOR**\n- **WITHDRAWAL BY PARENT/GUARDIAN**\n- **WITHDRAWAL BY SUBJECT**\n\n> **注意**：上述值列表基于 CDISC 标准受控术语。由于该 cod",
      "usage": {
        "prompt_tokens": 11629,
        "completion_tokens": 307,
        "total_tokens": 11936
      },
      "model": "deepseek/deepseek-chat",
      "answer": "根据 SDTMIG v3.4 的规定，当 **DSCAT = \"DISPOSITION EVENT\"** 时，**DSDECOD** 使用的受控术语 codelist 是 **Completion/Reason for Non-Completion (C66727)**，该 codelist 是可扩展的（Extensible: Yes）[Source: domains/DS/spec.md — DSDECOD][Source: domains/DS/assumptions.md — item_3]。\n\n以下是该 codelist 中用于表示**未完成原因**的 CDISC Submission Values（部分示例）：\n\n- **ADVERSE EVENT**\n- **DEATH**\n- **LOST TO FOLLOW-UP**\n- **PHYSICIAN DECISION**\n- **PREGNANCY**\n- **PROGRESSIVE DISEASE**\n- **PROTOCOL VIOLATION**\n- **STUDY TERMINATED BY SPONSOR**\n- **WITHDRAWAL BY PARENT/GUARDIAN**\n- **WITHDRAWAL BY SUBJECT**\n\n> **注意**：上述值列表基于 CDISC 标准受控术语。由于该 codelist 是可扩展的，实际提交中可能包含其他值，但必须通过 Define-XML 中的外部 codelist 元素进行定义，并向 CDISC 提交新术语请求 [Source: domains/DS/assumptions.md — item_3][Source: domains/LB/assumptions.md — item_7]。",
      "elapsed_s": 4.68
    },
    {
      "id": "q20",
      "category": "mixed",
      "question": "In the DM domain, what is the difference between the RFSTDTC/RFENDTC reference period pair and the RFXSTDTC/RFXENDTC pair, and under what circumstances will RFSTDTC be null?",
      "source_recall": 1.0,
      "source_hits": [
        "domains/DM/assumptions.md",
        "domains/DM/spec.md"
      ],
      "source_misses": [],
      "top5_sources": [
        "domains/DM/spec.md",
        "domains/DM/spec.md",
        "domains/DM/spec.md",
        "domains/DM/spec.md",
        "domains/DM/assumptions.md"
      ],
      "top5_similarities": [
        0.6249,
        0.5843,
        0.5508,
        0.5477,
        0.6653
      ],
      "fact_recall": 0.5,
      "fact_hits": [
        "screen failure"
      ],
      "fact_misses": [
        "sponsor-defined"
      ],
      "answer_preview": "## DM 域中 RFSTDTC/RFENDTC 与 RFXSTDTC/RFXENDTC 的区别\n\n### 两对参考期的区别\n\n**RFSTDTC/RFENDTC（受试者参考起止日期/时间）**\n- 由申办方定义，通常代表首次和末次研究暴露的日期/时间\n- 但**可自定义**：在某些研究设计中，参考期的起点可能被定义为不同的里程碑，例如：\n  - 随机化前有洗脱期的研究\n  - 筛选期需要医疗程序（如活检）的研究\n  - 在这些情况下，RFSTDTC 可能是入组日期（早于首次给药）\n- 由于**研究日（study day）是基于 RFSTDTC 计算的**，因此当 RFSTDTC 不是首次给药日期时，研究日将不基于首次给药日期计算\n\n**[Source: domains/DM/assumptions.md — item_10.a]**\n\n**RFXSTDTC/RFXENDTC（首次/末次研究治疗日期/时间）**\n- 为所有干预性研究定义**一致的参考期**，不可自定义\n- RFXSTDTC 和 RFXENDTC **始终**代表首次和末次研究暴露的日期/时间\n- 这一对变量保证了审阅者**始终能够**找到首次和末次研究暴露的参考期\n- RFXSTDTC 应等于 SE 数据集中第一个治疗元素的 SESTDTC\n- RFXENDTC 通常等于 SE 数据集中最后一个治疗元素的 SEEN",
      "usage": {
        "prompt_tokens": 12172,
        "completion_tokens": 710,
        "total_tokens": 12882
      },
      "model": "deepseek/deepseek-chat",
      "answer": "## DM 域中 RFSTDTC/RFENDTC 与 RFXSTDTC/RFXENDTC 的区别\n\n### 两对参考期的区别\n\n**RFSTDTC/RFENDTC（受试者参考起止日期/时间）**\n- 由申办方定义，通常代表首次和末次研究暴露的日期/时间\n- 但**可自定义**：在某些研究设计中，参考期的起点可能被定义为不同的里程碑，例如：\n  - 随机化前有洗脱期的研究\n  - 筛选期需要医疗程序（如活检）的研究\n  - 在这些情况下，RFSTDTC 可能是入组日期（早于首次给药）\n- 由于**研究日（study day）是基于 RFSTDTC 计算的**，因此当 RFSTDTC 不是首次给药日期时，研究日将不基于首次给药日期计算\n\n**[Source: domains/DM/assumptions.md — item_10.a]**\n\n**RFXSTDTC/RFXENDTC（首次/末次研究治疗日期/时间）**\n- 为所有干预性研究定义**一致的参考期**，不可自定义\n- RFXSTDTC 和 RFXENDTC **始终**代表首次和末次研究暴露的日期/时间\n- 这一对变量保证了审阅者**始终能够**找到首次和末次研究暴露的参考期\n- RFXSTDTC 应等于 SE 数据集中第一个治疗元素的 SESTDTC\n- RFXENDTC 通常等于 SE 数据集中最后一个治疗元素的 SEENDTC\n\n**[Source: domains/DM/assumptions.md — item_10.b]**\n\n### 核心差异总结\n\n| 特性 | RFSTDTC/RFENDTC | RFXSTDTC/RFXENDTC |\n|------|-----------------|-------------------|\n| 定义方式 | 申办方自定义 | 固定定义（首次/末次暴露） |\n| 可定制性 | 可调整（如入组日期） | 不可调整 |\n| 用途 | 计算研究日（--DY） | 提供一致的暴露参考期 |\n| 与 SE 的关系 | 无直接对应 | RFXSTDTC = 首个治疗元素 SESTDTC |\n\n### RFSTDTC 何时为 null\n\n根据 SDTMIG v3.4 假设 9，RFSTDTC 在以下情况下为 null：\n\n1. **筛选失败**（ARMNRS = \"SCREEN FAILURE\"）—— 不符合治疗条件的受试者\n2. **已入组但未分配至任何臂**（ARMNRS = \"NOT ASSIGNED\"）\n3. **已随机但未接受治疗**（ARMNRS = \"NOT TREATED\"）\n\n对于包含大量预期不治疗的受试者的研究设计（如非干预性/观察性研究、含无治疗臂的研究、随机化与治疗之间有延迟的研究），可选择不同的方案里程碑作为研究日起点。\n\n**[Source: domains/DM/assumptions.md — item_9]**\n\n此外，RFSTDTC 和 RFXSTDTC 等日期/时间变量在 DM 中被视为 **Record Qualifier** 角色，而非 Timing 变量，因为它们不用于通用观察类中的时间变量用途。\n\n**[Source: domains/DM/assumptions.md — item_7]**",
      "elapsed_s": 7.16
    },
    {
      "id": "q42",
      "category": "mixed",
      "question": "In the LB domain, how are normal ranges represented using LBORNRLO and LBORNRHI, and what is the LBNRIND variable used for?",
      "source_recall": 1.0,
      "source_hits": [
        "domains/LB/spec.md",
        "domains/LB/assumptions.md"
      ],
      "source_misses": [],
      "top5_sources": [
        "domains/LB/spec.md",
        "domains/LB/spec.md",
        "domains/LB/spec.md",
        "domains/LB/spec.md",
        "domains/LB/assumptions.md"
      ],
      "top5_similarities": [
        0.7713,
        0.6935,
        0.6933,
        0.6692,
        0.764
      ],
      "fact_recall": 1.0,
      "fact_hits": [
        "LBORNRLO",
        "LBORNRHI",
        "LBNRIND"
      ],
      "fact_misses": [],
      "answer_preview": "## LB 域中正常范围的表示\n\n### LBORNRLO 和 LBORNRHI\n\n**LBORNRLO**（Reference Range Lower Limit in Orig Unit）和 **LBORNRHI**（Reference Range Upper Limit in Orig Unit）用于表示**连续型测量结果**在**原始单位**下的参考范围上下限。\n\n- **LBORNRLO**：原始单位下的参考范围下限，Type 为 Char，Role 为 Variable Qualifier，Core 为 Exp（预期）。仅适用于连续型结果。**[Source: domains/LB/spec.md -- LBORNRLO]**\n- **LBORNRHI**：原始单位下的参考范围上限，Type 为 Char，Role 为 Variable Qualifier，Core 为 Exp（预期）。仅适用于连续型结果。**[Source: domains/LB/spec.md -- LBORNRHI]**\n\n对于非连续型数值结果（如尿蛋白试纸法、尿色等描述性检验），LBORNRLO 和 LBORNRHI 应保持为空（null），此时应使用 **LBSTNRC**（Reference Range for Char Rslt-Std Units）来表示字符型正常范围。**[Source",
      "usage": {
        "prompt_tokens": 13050,
        "completion_tokens": 758,
        "total_tokens": 13808
      },
      "model": "deepseek/deepseek-chat",
      "answer": "## LB 域中正常范围的表示\n\n### LBORNRLO 和 LBORNRHI\n\n**LBORNRLO**（Reference Range Lower Limit in Orig Unit）和 **LBORNRHI**（Reference Range Upper Limit in Orig Unit）用于表示**连续型测量结果**在**原始单位**下的参考范围上下限。\n\n- **LBORNRLO**：原始单位下的参考范围下限，Type 为 Char，Role 为 Variable Qualifier，Core 为 Exp（预期）。仅适用于连续型结果。**[Source: domains/LB/spec.md -- LBORNRLO]**\n- **LBORNRHI**：原始单位下的参考范围上限，Type 为 Char，Role 为 Variable Qualifier，Core 为 Exp（预期）。仅适用于连续型结果。**[Source: domains/LB/spec.md -- LBORNRHI]**\n\n对于非连续型数值结果（如尿蛋白试纸法、尿色等描述性检验），LBORNRLO 和 LBORNRHI 应保持为空（null），此时应使用 **LBSTNRC**（Reference Range for Char Rslt-Std Units）来表示字符型正常范围。**[Source: domains/LB/assumptions.md -- item_2]**\n\n此外，还有对应的标准化单位版本：\n- **LBSTNRLO**（Reference Range Lower Limit-Std Units）：Num 类型，标准化单位下的参考范围下限。**[Source: domains/LB/spec.md -- LBSTNRLO]**\n- **LBSTNRHI**（Reference Range Upper Limit-Std Units）：Num 类型，标准化单位下的参考范围上限。**[Source: domains/LB/spec.md -- LBSTNRHI]**\n\n### LBNRIND\n\n**LBNRIND**（Reference Range Indicator）用于指示结果值相对于参考范围的位置。\n\n- **Label**：Reference Range Indicator\n- **Type**：Char\n- **Controlled Terms**：C78736\n- **Role**：Variable Qualifier\n- **Core**：Exp（预期）**[Source: domains/LB/spec.md -- LBNRIND]**\n\n允许值示例包括：\"NORMAL\"、\"ABNORMAL\"、\"HIGH\"、\"LOW\"。**[Source: domains/LB/spec.md -- LBNRIND]**\n\n**重要使用规则**：\n1. 申办方应在研究元数据（Define-XML 文档的 Comments 列）中说明 LBNRIND 是参照原始参考范围还是标准参考范围及结果。**[Source: domains/LB/spec.md -- LBNRIND]**\n2. LBNRIND **不用于指示临床意义**（临床意义应使用 LBCLSIG 表示）。**[Source: domains/LB/spec.md -- LBNRIND]**\n3. 如果使用了毒性分级，应通过 LBTOX 和 LBTOXGR 变量表示。**[Source: domains/LB/assumptions.md -- item_3]**\n\n### 总结\n\n| 变量 | 用途 | 适用场景 |\n|------|------|----------|\n| LBORNRLO / LBORNRHI | 原始单位下的参考范围上下限 | 连续型数值结果 |\n| LBSTNRLO / LBSTNRHI | 标准化单位下的参考范围上下限 | 连续型数值结果 |\n| LBSTNRC | 字符型参考范围 | 非连续型/序数型结果（如 \"NEGATIVE TO TRACE\"）|\n| LBNRIND | 结果相对于参考范围的位置指示 | 所有类型结果（如 \"HIGH\"、\"LOW\"）|",
      "elapsed_s": 7.18
    },
    {
      "id": "q43",
      "category": "mixed",
      "question": "What is the controlled terminology codelist for the SEX variable in the DM domain? Provide the codelist code and describe the Core designation.",
      "source_recall": 1.0,
      "source_hits": [
        "domains/DM/spec.md"
      ],
      "source_misses": [],
      "top5_sources": [
        "domains/DM/spec.md",
        "terminology/core/dm.md",
        "chapters/ch04_general_assumptions.md",
        "domains/DM/spec.md",
        "chapters/ch04_general_assumptions.md"
      ],
      "top5_similarities": [
        0.6578,
        0.5551,
        0.633,
        0.6311,
        0.5852
      ],
      "fact_recall": 1.0,
      "fact_hits": [
        "SEX",
        "C66731",
        "Req"
      ],
      "fact_misses": [],
      "answer_preview": "根据检索到的上下文，DM 域中 **SEX** 变量的受控术语 codelist 为 **C66731**（Sex）。该 codelist 不可扩展（Extensible: No），包含以下允许值：F（Female）、M（Male）、U（Unknown）和 UNDIFFERENTIATED。\n\n**Core 指定**：SEX 的 Core 为 **Req**（Required，必需）。这意味着在 DM 数据集中，每个受试者的 SEX 变量都必须填写，不允许为空。\n\n**来源**：\n- SEX 变量定义（含 Core=Req 和 Controlled Terms=C66731）：[domains/DM/spec.md](domains/DM/spec.md)\n- C66731 codelist 的完整值列表：[terminology/core/dm.md](terminology/core/dm.md)",
      "usage": {
        "prompt_tokens": 12321,
        "completion_tokens": 176,
        "total_tokens": 12497
      },
      "model": "deepseek/deepseek-chat",
      "answer": "根据检索到的上下文，DM 域中 **SEX** 变量的受控术语 codelist 为 **C66731**（Sex）。该 codelist 不可扩展（Extensible: No），包含以下允许值：F（Female）、M（Male）、U（Unknown）和 UNDIFFERENTIATED。\n\n**Core 指定**：SEX 的 Core 为 **Req**（Required，必需）。这意味着在 DM 数据集中，每个受试者的 SEX 变量都必须填写，不允许为空。\n\n**来源**：\n- SEX 变量定义（含 Core=Req 和 Controlled Terms=C66731）：[domains/DM/spec.md](domains/DM/spec.md)\n- C66731 codelist 的完整值列表：[terminology/core/dm.md](terminology/core/dm.md)",
      "elapsed_s": 3.3
    },
    {
      "id": "q44",
      "category": "mixed",
      "question": "In the VS domain, what is the controlled terminology codelist code for VSTESTCD, and give examples of standard vital signs test codes like systolic and diastolic blood pressure.",
      "source_recall": 1.0,
      "source_hits": [
        "domains/VS/spec.md"
      ],
      "source_misses": [],
      "top5_sources": [
        "domains/VS/spec.md",
        "terminology/core/vs.md",
        "domains/VS/spec.md",
        "domains/VS/spec.md",
        "VARIABLE_INDEX.md"
      ],
      "top5_similarities": [
        0.7284,
        0.4981,
        0.6737,
        0.6183,
        0.5512
      ],
      "fact_recall": 1.0,
      "fact_hits": [
        "C66741",
        "SYSBP",
        "DIABP"
      ],
      "fact_misses": [],
      "answer_preview": "根据 SDTMIG v3.4 和 SDTM 受控术语，VS 域中 **VSTESTCD** 的受控术语 codelist 代码为 **C66741**（Vital Signs Test Code）[Source: domains/VS/spec.md — VSTESTCD]。\n\n该 codelist 是 **Extensible: Yes**（可扩展），即允许在标准列表之外添加自定义测试代码 [Source: terminology/core/vs.md — Vital Signs Test Code (C66741)]。\n\n标准生命体征测试代码示例如下（仅列出名称，不附加每个值的 NCI 代码，因为上下文未逐行显示这些值的代码）：\n\n| VSTESTCD | VSTEST（对应名称） |\n|----------|-------------------|\n| SYSBP | Systolic Blood Pressure |\n| DIABP | Diastolic Blood Pressure |\n| PULSE | Pulse Rate |\n| TEMP | Temperature |\n| WEIGHT | Weight |\n| HEIGHT | Height |\n| BMI | Body Mass Index |\n| BSA | Body Surface Area |\n| RE",
      "usage": {
        "prompt_tokens": 14904,
        "completion_tokens": 267,
        "total_tokens": 15171
      },
      "model": "deepseek/deepseek-chat",
      "answer": "根据 SDTMIG v3.4 和 SDTM 受控术语，VS 域中 **VSTESTCD** 的受控术语 codelist 代码为 **C66741**（Vital Signs Test Code）[Source: domains/VS/spec.md — VSTESTCD]。\n\n该 codelist 是 **Extensible: Yes**（可扩展），即允许在标准列表之外添加自定义测试代码 [Source: terminology/core/vs.md — Vital Signs Test Code (C66741)]。\n\n标准生命体征测试代码示例如下（仅列出名称，不附加每个值的 NCI 代码，因为上下文未逐行显示这些值的代码）：\n\n| VSTESTCD | VSTEST（对应名称） |\n|----------|-------------------|\n| SYSBP | Systolic Blood Pressure |\n| DIABP | Diastolic Blood Pressure |\n| PULSE | Pulse Rate |\n| TEMP | Temperature |\n| WEIGHT | Weight |\n| HEIGHT | Height |\n| BMI | Body Mass Index |\n| BSA | Body Surface Area |\n| RESP | Respiratory Rate |\n| OXYSAT | Oxygen Saturation |\n\n[Source: terminology/core/vs.md — Vital Signs Test Code (C66741); domains/VS/examples.md — Example 1]",
      "elapsed_s": 4.61
    },
    {
      "id": "q45",
      "category": "mixed",
      "question": "What is the RACE variable in the DM domain, what codelist does it use, and what is its Core designation?",
      "source_recall": 1.0,
      "source_hits": [
        "domains/DM/spec.md"
      ],
      "source_misses": [],
      "top5_sources": [
        "domains/DM/spec.md",
        "terminology/core/dm.md",
        "domains/DM/examples.md",
        "domains/DM/examples.md",
        "domains/DM/assumptions.md"
      ],
      "top5_similarities": [
        0.6135,
        0.469,
        0.5662,
        0.5707,
        0.6038
      ],
      "fact_recall": 1.0,
      "fact_hits": [
        "RACE",
        "C74457",
        "Exp"
      ],
      "fact_misses": [],
      "answer_preview": "根据 SDTMIG v3.4 规范，DM 域中的 **RACE** 变量定义如下：\n\n- **Label（标签）:** Race\n- **Type（类型）:** Char（字符型）\n- **Role（角色）:** Record Qualifier（记录限定符）\n- **Core（核心性）:** Exp（预期，Expected）\n- **Controlled Terms（受控术语）:** C74457\n\n**[Source: domains/DM/spec.md — RACE]**\n\n该变量使用的受控术语列表为 **Race (C74457)**，这是一个不可扩展（Extensible: No）的编码表，包含以下标准提交值：\n\n| CDISC Submission Value | 说明 |\n|------------------------|------|\n| AMERICAN INDIAN OR ALASKA NATIVE | 美洲印第安人或阿拉斯加原住民 |\n| ASIAN | 亚洲人 |\n| BLACK OR AFRICAN AMERICAN | 黑人或非裔美国人 |\n| NATIVE HAWAIIAN OR OTHER PACIFIC ISLANDER | 夏威夷原住民或其他太平洋岛民 |\n| NOT REPORTED | 未报告 |\n| OTHER | 其他 |\n| UNK",
      "usage": {
        "prompt_tokens": 16429,
        "completion_tokens": 354,
        "total_tokens": 16783
      },
      "model": "deepseek/deepseek-chat",
      "answer": "根据 SDTMIG v3.4 规范，DM 域中的 **RACE** 变量定义如下：\n\n- **Label（标签）:** Race\n- **Type（类型）:** Char（字符型）\n- **Role（角色）:** Record Qualifier（记录限定符）\n- **Core（核心性）:** Exp（预期，Expected）\n- **Controlled Terms（受控术语）:** C74457\n\n**[Source: domains/DM/spec.md — RACE]**\n\n该变量使用的受控术语列表为 **Race (C74457)**，这是一个不可扩展（Extensible: No）的编码表，包含以下标准提交值：\n\n| CDISC Submission Value | 说明 |\n|------------------------|------|\n| AMERICAN INDIAN OR ALASKA NATIVE | 美洲印第安人或阿拉斯加原住民 |\n| ASIAN | 亚洲人 |\n| BLACK OR AFRICAN AMERICAN | 黑人或非裔美国人 |\n| NATIVE HAWAIIAN OR OTHER PACIFIC ISLANDER | 夏威夷原住民或其他太平洋岛民 |\n| NOT REPORTED | 未报告 |\n| OTHER | 其他 |\n| UNKNOWN | 未知 |\n| WHITE | 白人 |\n\n**[Source: terminology/core/dm.md — Race (C74457)]**\n\n此外，根据 DM 域的假设规则，如果收集了多种族（multiple races）数据，则 RACE 的值应为 \"MULTIPLE\"，额外的种族信息将记录在 SUPPDM 补充限定符数据集中。如果受试者拒绝提供或不知道其种族信息，RACE 的值可为 \"UNKNOWN\"。\n\n**[Source: domains/DM/assumptions.md — item_6]**",
      "elapsed_s": 4.51
    },
    {
      "id": "q46",
      "category": "mixed",
      "question": "What is the AEOUT (Outcome of Adverse Event) variable in the AE domain and what controlled terminology codelist code does it use?",
      "source_recall": 1.0,
      "source_hits": [
        "domains/AE/spec.md"
      ],
      "source_misses": [],
      "top5_sources": [
        "domains/AE/spec.md",
        "terminology/core/ae.md",
        "domains/AE/spec.md",
        "VARIABLE_INDEX.md",
        "domains/AE/assumptions.md"
      ],
      "top5_similarities": [
        0.7992,
        0.5705,
        0.6582,
        0.6157,
        0.7025
      ],
      "fact_recall": 1.0,
      "fact_hits": [
        "AEOUT",
        "C66768",
        "Perm"
      ],
      "fact_misses": [],
      "answer_preview": "AEOUT（Outcome of Adverse Event）是 AE（Adverse Events）域中的一个变量，用于描述不良事件的结局。\n\n**变量定义：**\n- **Label（标签）：** Outcome of Adverse Event\n- **Type（类型）：** Char（字符型）\n- **Role（角色）：** Record Qualifier（记录限定符）\n- **Core（核心性）：** Perm（允许的）\n- **CDISC Notes（说明）：** Description of the outcome of an event.\n\n**受控术语（Controlled Terminology）：**\nAEOUT 使用的受控术语 codelist 代码为 **C66768**（Outcome of Event），该 codelist 不可扩展（Extensible: No），包含以下允许值：\n\n| Code | CDISC Submission Value |\n|------|------------------------|\n| C48275 | FATAL |\n| C49494 | NOT RECOVERED/NOT RESOLVED |\n| C49495 | RECOVERED/RESOLVED WITH SEQUELAE |\n| C49498 | RE",
      "usage": {
        "prompt_tokens": 15102,
        "completion_tokens": 276,
        "total_tokens": 15378
      },
      "model": "deepseek/deepseek-chat",
      "answer": "AEOUT（Outcome of Adverse Event）是 AE（Adverse Events）域中的一个变量，用于描述不良事件的结局。\n\n**变量定义：**\n- **Label（标签）：** Outcome of Adverse Event\n- **Type（类型）：** Char（字符型）\n- **Role（角色）：** Record Qualifier（记录限定符）\n- **Core（核心性）：** Perm（允许的）\n- **CDISC Notes（说明）：** Description of the outcome of an event.\n\n**受控术语（Controlled Terminology）：**\nAEOUT 使用的受控术语 codelist 代码为 **C66768**（Outcome of Event），该 codelist 不可扩展（Extensible: No），包含以下允许值：\n\n| Code | CDISC Submission Value |\n|------|------------------------|\n| C48275 | FATAL |\n| C49494 | NOT RECOVERED/NOT RESOLVED |\n| C49495 | RECOVERED/RESOLVED WITH SEQUELAE |\n| C49498 | RECOVERED/RESOLVED |\n| C49496 | RECOVERING/RESOLVING |\n| C17998 | UNKNOWN |\n\n**[Source: domains/AE/spec.md — AEOUT]**\n**[Source: terminology/core/ae.md — Outcome of Event (C66768)]**",
      "elapsed_s": 3.33
    },
    {
      "id": "q47",
      "category": "mixed",
      "question": "How do QS (Questionnaires) domains handle instrument-specific variables using QSCAT, and what role does QSTESTCD play in organizing question-level data?",
      "source_recall": 1.0,
      "source_hits": [
        "domains/QS/spec.md",
        "domains/QS/assumptions.md"
      ],
      "source_misses": [],
      "top5_sources": [
        "VARIABLE_INDEX.md",
        "domains/QS/spec.md",
        "chapters/ch04_general_assumptions.md",
        "chapters/ch08_relationships.md",
        "domains/SUPPQUAL/examples.md"
      ],
      "top5_similarities": [
        0.6338,
        0.6922,
        0.6635,
        0.5797,
        0.6611
      ],
      "fact_recall": 1.0,
      "fact_hits": [
        "QSTESTCD",
        "QSCAT",
        "Topic"
      ],
      "fact_misses": [],
      "answer_preview": "## QS 域中 QSCAT 和 QSTESTCD 的作用\n\n### QSCAT（问卷类别）\n\n**QSCAT** 是 QS 域中的 **Grouping Qualifier** 变量，用于标识每条记录所属的问卷工具名称。\n\n| 属性 | 值 |\n|------|-----|\n| **Label** | Category of Question |\n| **Type** | Char |\n| **Role** | Grouping Qualifier |\n| **Core** | Req（必需） |\n| **Controlled Terms** | C100129 |\n\n**[Source: domains/QS/spec.md — QSCAT]**\n\n**CDISC Notes** 明确指出：QSCAT 用于指定 QSTEST 和 QSTESTCD 所标识的问题来自哪个问卷。示例值包括 `\"ADAS-COG\"`、`\"MDS-UPDRS\"` 等。 **[Source: domains/QS/spec.md — QSCAT]**\n\nQSCAT 在以下场景中发挥关键作用：\n\n1. **域拆分（Splitting Domains）**：当赞助方希望将 QS 域按问卷工具拆分为多个物理数据集时，可以基于 QSCAT 的值进行拆分。例如，将 QS 拆分为 `QS36`（SF-36 数据）和 ",
      "usage": {
        "prompt_tokens": 16615,
        "completion_tokens": 848,
        "total_tokens": 17463
      },
      "model": "deepseek/deepseek-chat",
      "answer": "## QS 域中 QSCAT 和 QSTESTCD 的作用\n\n### QSCAT（问卷类别）\n\n**QSCAT** 是 QS 域中的 **Grouping Qualifier** 变量，用于标识每条记录所属的问卷工具名称。\n\n| 属性 | 值 |\n|------|-----|\n| **Label** | Category of Question |\n| **Type** | Char |\n| **Role** | Grouping Qualifier |\n| **Core** | Req（必需） |\n| **Controlled Terms** | C100129 |\n\n**[Source: domains/QS/spec.md — QSCAT]**\n\n**CDISC Notes** 明确指出：QSCAT 用于指定 QSTEST 和 QSTESTCD 所标识的问题来自哪个问卷。示例值包括 `\"ADAS-COG\"`、`\"MDS-UPDRS\"` 等。 **[Source: domains/QS/spec.md — QSCAT]**\n\nQSCAT 在以下场景中发挥关键作用：\n\n1. **域拆分（Splitting Domains）**：当赞助方希望将 QS 域按问卷工具拆分为多个物理数据集时，可以基于 QSCAT 的值进行拆分。例如，将 QS 拆分为 `QS36`（SF-36 数据）和 `QSBPI`（BPI 数据）。拆分后，DOMAIN 的值仍保持为 `QS`，但数据集名称可扩展至 4 个字符。 **[Source: chapters/ch04_general_assumptions.md — §4.1.7 Splitting Domains]**\n\n2. **SUPPQUAL 关联键**：在 Supplemental Qualifier 数据集中，QSCAT 可作为 `IDVAR` 使用，将补充信息关联到特定问卷的所有记录。例如，`IDVAR=QSCAT`、`IDVARVAL=BPI` 表示该补充变量适用于 BPI 问卷的所有记录。 **[Source: domains/SUPPQUAL/examples.md — Example 2]**\n\n### QSTESTCD（问题短名称）\n\n**QSTESTCD** 是 QS 域中的 **Topic** 变量，用于标识每个具体问题的短名称。\n\n| 属性 | 值 |\n|------|-----|\n| **Label** | Question Short Name |\n| **Type** | Char |\n| **Role** | Topic |\n| **Core** | Req（必需） |\n| **Controlled Terms** | 每个问卷有独立的 codelist |\n\n**[Source: domains/QS/spec.md — QSTESTCD]**\n\n**CDISC Notes** 关键规则：\n- QSTESTCD 长度不能超过 8 个字符\n- 不能以数字开头（如 `\"1TEST\"` 无效）\n- 只能包含字母、数字和下划线\n- 示例值：`\"ADCCMD01\"`、`\"BPR0103\"`\n- 受控术语按每个问卷独立发布 **[Source: domains/QS/spec.md — QSTESTCD]**\n\n### 两者的协同工作方式\n\n1. **分层组织**：QSCAT 标识问卷工具（如 `\"ADAS-COG\"`），QSTESTCD 标识该工具内的具体问题（如 `\"ADCCMD01\"`）。两者共同构成完整的问卷数据标识体系。\n\n2. **QRS 补充规范**：所有标准 QRS（Questionnaires, Ratings, and Scales）工具的受控术语和补充规范由 CDISC SDS QRS Subteam 统一管理。赞助方在建模任何 QRS 工具前应查阅 CDISC 网站上的已发布术语和补充规范。 **[Source: domains/QS/assumptions.md — item_9]**\n\n3. **数据表示**：在垂直格式的 QS 数据集中，每条记录对应一个问卷问题的一个回答。QSTESTCD 和 QSTEST 标识问题，QSCAT 标识所属问卷，QSCAT 还可用于将同一问卷的所有记录分组处理。",
      "elapsed_s": 8.1
    },
    {
      "id": "q48",
      "category": "mixed",
      "question": "What is the FATESTCD variable's controlled terminology codelist code in the FA domain, and give examples of standard FA test codes?",
      "source_recall": 1.0,
      "source_hits": [
        "domains/FA/spec.md"
      ],
      "source_misses": [],
      "top5_sources": [
        "domains/FA/spec.md",
        "terminology/core/findings_about.md",
        "domains/FA/assumptions.md",
        "domains/FA/spec.md",
        "chapters/ch04_general_assumptions.md"
      ],
      "top5_similarities": [
        0.6788,
        0.4059,
        0.6339,
        0.6772,
        0.5701
      ],
      "fact_recall": 1.0,
      "fact_hits": [
        "FATESTCD",
        "C101832"
      ],
      "fact_misses": [],
      "answer_preview": "根据您的问题，以下是关于 FA 域中 FATESTCD 变量的受控术语代码及标准测试代码示例：\n\n## FATESTCD 受控术语\n\nFATESTCD 变量的受控术语代码为 **C101832** (Findings About Test Code) **[Source: domains/FA/spec.md -- FATESTCD]**。\n\n- **Label:** Findings About Test Short Name\n- **Type:** Char\n- **Role:** Topic\n- **Core:** Req\n- **Extensible:** Yes (可扩展) **[Source: terminology/core/findings_about.md]**\n\n## 标准 FA 测试代码示例\n\n以下是一些来自 C101832 受控术语列表的标准 FATESTCD 值 **[Source: terminology/core/findings_about.md]**：\n\n| FATESTCD | FATEST (对应标签) |\n|----------|-------------------|\n| SEV | Severity/Intensity |\n| OCCUR | Occurrence Indicator |\n| TOXGR | Toxicity Grade ",
      "usage": {
        "prompt_tokens": 15905,
        "completion_tokens": 435,
        "total_tokens": 16340
      },
      "model": "deepseek/deepseek-chat",
      "answer": "根据您的问题，以下是关于 FA 域中 FATESTCD 变量的受控术语代码及标准测试代码示例：\n\n## FATESTCD 受控术语\n\nFATESTCD 变量的受控术语代码为 **C101832** (Findings About Test Code) **[Source: domains/FA/spec.md -- FATESTCD]**。\n\n- **Label:** Findings About Test Short Name\n- **Type:** Char\n- **Role:** Topic\n- **Core:** Req\n- **Extensible:** Yes (可扩展) **[Source: terminology/core/findings_about.md]**\n\n## 标准 FA 测试代码示例\n\n以下是一些来自 C101832 受控术语列表的标准 FATESTCD 值 **[Source: terminology/core/findings_about.md]**：\n\n| FATESTCD | FATEST (对应标签) |\n|----------|-------------------|\n| SEV | Severity/Intensity |\n| OCCUR | Occurrence Indicator |\n| TOXGR | Toxicity Grade |\n| CUMEXP | Cumulative Exposure |\n| ACNDEV | Action Taken With Device |\n| ACNSBJ | Action Taken With Subject |\n| BIOPSIND | Biopsy Specimen Taken Indicator |\n| BIOPSNUM | Number of Biopsy Specimens Taken |\n| CLININD | Clinic Stay Indicator |\n| ABSCNUM | Number of Abscesses |\n\n## 使用说明\n\n根据 SDTMIG 指南，当收集的数据适合使用限定词变量（如 --SEV、--OCCUR、--TOXGR）并在 FA 域中表示时，该变量的名称应作为 FATESTCD 的值使用 **[Source: model/02_observation_classes.md]**。例如，FATESTCD=\"SEV\" 表示严重程度评估，FATESTCD=\"OCCUR\" 表示发生情况指示 **[Source: domains/FA/examples.md]**。\n\n注意：FATESTCD 的值不能超过 8 个字符，不能以数字开头，且只能包含字母、数字或下划线 **[Source: domains/FA/spec.md -- FATESTCD]**。",
      "elapsed_s": 5.05
    },
    {
      "id": "s01",
      "category": "single_domain",
      "question": "In the DM domain, what is the controlled terminology codelist code for the SEX variable, and what are its four permitted submission values?",
      "source_recall": 1.0,
      "source_hits": [
        "terminology/core/dm.md",
        "domains/DM/spec.md"
      ],
      "source_misses": [],
      "top5_sources": [
        "domains/DM/spec.md",
        "terminology/core/dm.md",
        "domains/DM/assumptions.md",
        "domains/DM/spec.md",
        "chapters/ch04_general_assumptions.md"
      ],
      "top5_similarities": [
        0.6527,
        0.5863,
        0.556,
        0.5861,
        0.5689
      ],
      "fact_recall": 1.0,
      "fact_hits": [
        "C66731",
        "F",
        "M",
        "U",
        "UNDIFFERENTIATED"
      ],
      "fact_misses": [],
      "answer_preview": "根据检索到的上下文，DM 域中 **SEX** 变量的受控术语 codelist 代码为 **C66731**，其四个允许的提交值（Submission Value）如下：\n\n| CDISC Submission Value | CDISC Synonym(s) | CDISC Definition |\n|------------------------|------------------|------------------|\n| F | Female | A person who belongs to the sex that normally produces ova. The term is used to indicate biological sex distinctions, or cultural gender role distinctions, or both. (NCI) |\n| M | Male | A person who belongs to the sex that normally produces sperm. The term is used to indicate biological sex distinctions, cultural gender role distinctions, or both. (NCI) |\n| U | U; ",
      "usage": {
        "prompt_tokens": 14139,
        "completion_tokens": 281,
        "total_tokens": 14420
      },
      "model": "deepseek/deepseek-chat",
      "answer": "根据检索到的上下文，DM 域中 **SEX** 变量的受控术语 codelist 代码为 **C66731**，其四个允许的提交值（Submission Value）如下：\n\n| CDISC Submission Value | CDISC Synonym(s) | CDISC Definition |\n|------------------------|------------------|------------------|\n| F | Female | A person who belongs to the sex that normally produces ova. The term is used to indicate biological sex distinctions, or cultural gender role distinctions, or both. (NCI) |\n| M | Male | A person who belongs to the sex that normally produces sperm. The term is used to indicate biological sex distinctions, cultural gender role distinctions, or both. (NCI) |\n| U | U; UNK; Unknown | Not known, not observed, not recorded, or refused. (NCI) |\n| UNDIFFERENTIATED |  | A person (one of unisexual specimens) who is born with genitalia and/or secondary sexual characteristics of indeterminate sex, or which combine features of both sexes. (NCI) |\n\n**来源：**\n- SEX 变量定义及 codelist 代码 C66731：[domains/DM/spec.md](domains/DM/spec.md)\n- C66731 的完整值列表：[terminology/core/dm.md](terminology/core/dm.md)",
      "elapsed_s": 3.34
    },
    {
      "id": "s02",
      "category": "concept",
      "question": "What is the SUPPQUAL variable QNAM and what character constraints apply to it? What is the maximum length and what characters are allowed?",
      "source_recall": 1.0,
      "source_hits": [
        "domains/SUPPQUAL/spec.md",
        "model/06_relationship_datasets.md"
      ],
      "source_misses": [],
      "top5_sources": [
        "domains/SUPPQUAL/spec.md",
        "domains/SUPPQUAL/spec.md",
        "domains/SUPPQUAL/spec.md",
        "domains/SUPPQUAL/spec.md",
        "chapters/ch04_general_assumptions.md"
      ],
      "top5_similarities": [
        0.6726,
        0.6267,
        0.5758,
        0.4786,
        0.5437
      ],
      "fact_recall": 0.4,
      "fact_hits": [
        "QNAM",
        "Qualifier Variable Name"
      ],
      "fact_misses": [
        "8 characters",
        "letters, numbers, or underscores",
        "cannot start with a number"
      ],
      "answer_preview": "根据 SDTMIG v3.4 和 SDTM v2.0 模型，**QNAM**（Qualifier Variable Name）是 SUPPQUAL（Supplemental Qualifiers）数据集中的一个变量，用于存储补充限定符变量的短名称。\n\n## QNAM 定义\n\n| 属性 | 值 |\n|------|-----|\n| **Label** | Qualifier Variable Name |\n| **Type** | Char |\n| **Role** | Topic |\n| **Core** | Req |\n| **CDISC Notes** | 限定符变量的短名称，用作父域数据在域视图中的列名。该值通常是申办方操作数据集中的列名。 |\n\n[Source: domains/SUPPQUAL/spec.md]\n\n## 字符约束\n\nQNAM 受以下字符限制：\n\n1. **最大长度：8 个字符** — QNAM 的值不能超过 8 个字符。\n   [Source: domains/SUPPQUAL/spec.md; chapters/ch04_general_assumptions.md §4.2.1]\n\n2. **不能以数字开头** — 例如，\"1TEST\" 是无效的。\n   [Source: domains/SUPPQUAL/spec.md]\n\n3. **允许的字符** ",
      "usage": {
        "prompt_tokens": 15412,
        "completion_tokens": 507,
        "total_tokens": 15919
      },
      "model": "deepseek/deepseek-chat",
      "answer": "根据 SDTMIG v3.4 和 SDTM v2.0 模型，**QNAM**（Qualifier Variable Name）是 SUPPQUAL（Supplemental Qualifiers）数据集中的一个变量，用于存储补充限定符变量的短名称。\n\n## QNAM 定义\n\n| 属性 | 值 |\n|------|-----|\n| **Label** | Qualifier Variable Name |\n| **Type** | Char |\n| **Role** | Topic |\n| **Core** | Req |\n| **CDISC Notes** | 限定符变量的短名称，用作父域数据在域视图中的列名。该值通常是申办方操作数据集中的列名。 |\n\n[Source: domains/SUPPQUAL/spec.md]\n\n## 字符约束\n\nQNAM 受以下字符限制：\n\n1. **最大长度：8 个字符** — QNAM 的值不能超过 8 个字符。\n   [Source: domains/SUPPQUAL/spec.md; chapters/ch04_general_assumptions.md §4.2.1]\n\n2. **不能以数字开头** — 例如，\"1TEST\" 是无效的。\n   [Source: domains/SUPPQUAL/spec.md]\n\n3. **允许的字符** — 只能包含字母、数字或下划线。不允许使用其他字符（如空格、连字符、特殊符号）。\n   [Source: domains/SUPPQUAL/spec.md]\n\n## 与 --TESTCD 的关系\n\nQNAM 在补充限定符数据集中起到与 --TESTCD 在 Findings 域中相同的作用。因此，QNAM 的值受与 --TESTCD 相同的限制：\n- 限制为 8 个字符\n- 不能以数字开头\n- 只能包含字母、数字或下划线\n\n[Source: chapters/ch04_general_assumptions.md §4.2.1]\n\n## 补充说明\n\n- QLABEL（Qualifier Variable Label）是 QNAM 对应的长名称或标签，最大长度为 **40 个字符**。\n  [Source: domains/SUPPQUAL/spec.md]\n\n- 当文本超过 200 个字符需要拆分到多个 SUPP-- 记录时，QNAM 应包含一个由原始域变量名附加 1 位数字整数（从 1 开始）形成的顺序变量名。\n  [Source: chapters/ch04_general_assumptions.md §4.5.3.2]",
      "elapsed_s": 5.63
    },
    {
      "id": "s03",
      "category": "cross_domain",
      "question": "The DM variable RFXSTDTC is defined as equal to the earliest value of which variable in the EX domain? Similarly, RFXENDTC is equal to the latest value of which EX variable (or which fallback variable if that is not collected)?",
      "source_recall": 1.0,
      "source_hits": [
        "domains/DM/spec.md",
        "domains/EX/spec.md"
      ],
      "source_misses": [],
      "top5_sources": [
        "domains/DM/spec.md",
        "domains/EX/spec.md",
        "domains/DM/assumptions.md",
        "domains/DM/spec.md",
        "domains/DM/spec.md"
      ],
      "top5_similarities": [
        0.6568,
        0.5803,
        0.6371,
        0.6269,
        0.5537
      ],
      "fact_recall": 0.6667,
      "fact_hits": [
        "EXSTDTC",
        "RFXSTDTC",
        "EXENDTC",
        "RFXENDTC"
      ],
      "fact_misses": [
        "earliest",
        "latest"
      ],
      "answer_preview": "根据 SDTMIG v3.4 的定义：\n\n- **RFXSTDTC**（Date/Time of First Study Treatment）等于 EX 域中 **EXSTDTC** 的最早值。  \n  **[Source: domains/DM/spec.md — RFXSTDTC, CDISC Notes]**\n\n- **RFXENDTC**（Date/Time of Last Study Treatment）等于 EX 域中 **EXENDTC** 的最新值；如果 EXENDTC 未收集或缺失，则回退使用 **EXSTDTC** 的最新值。  \n  **[Source: domains/DM/spec.md — RFXENDTC, CDISC Notes]**",
      "usage": {
        "prompt_tokens": 14665,
        "completion_tokens": 142,
        "total_tokens": 14807
      },
      "model": "deepseek/deepseek-chat",
      "answer": "根据 SDTMIG v3.4 的定义：\n\n- **RFXSTDTC**（Date/Time of First Study Treatment）等于 EX 域中 **EXSTDTC** 的最早值。  \n  **[Source: domains/DM/spec.md — RFXSTDTC, CDISC Notes]**\n\n- **RFXENDTC**（Date/Time of Last Study Treatment）等于 EX 域中 **EXENDTC** 的最新值；如果 EXENDTC 未收集或缺失，则回退使用 **EXSTDTC** 的最新值。  \n  **[Source: domains/DM/spec.md — RFXENDTC, CDISC Notes]**",
      "elapsed_s": 2.43
    },
    {
      "id": "s04",
      "category": "mixed",
      "question": "In the AE domain, what is the controlled terminology codelist code for the AEACN (Action Taken with Study Treatment) variable, and what ICH E2B example values does the CDISC Notes field list for this variable?",
      "source_recall": 1.0,
      "source_hits": [
        "domains/AE/spec.md",
        "terminology/core/ae.md"
      ],
      "source_misses": [],
      "top5_sources": [
        "domains/AE/spec.md",
        "terminology/core/ae.md",
        "domains/AE/spec.md",
        "domains/AE/assumptions.md",
        "domains/AE/spec.md"
      ],
      "top5_similarities": [
        0.7623,
        0.5455,
        0.681,
        0.676,
        0.6262
      ],
      "fact_recall": 1.0,
      "fact_hits": [
        "C66767",
        "DRUG WITHDRAWN",
        "DOSE REDUCED",
        "DOSE INCREASED",
        "DOSE NOT CHANGED",
        "UNKNOWN",
        "NOT APPLICABLE"
      ],
      "fact_misses": [],
      "answer_preview": "根据检索到的上下文，AEACN（Action Taken with Study Treatment）变量的受控术语 codelist 代码为 **C66767**。\n\nCDISC Notes 字段列出的 ICH E2B 示例值包括：\n- \"DRUG WITHDRAWN\"\n- \"DOSE REDUCED\"\n- \"DOSE INCREASED\"\n- \"DOSE NOT CHANGED\"\n- \"UNKNOWN\"\n- \"NOT APPLICABLE\"\n\n**[Source: domains/AE/spec.md -- AEACN]**",
      "usage": {
        "prompt_tokens": 14147,
        "completion_tokens": 109,
        "total_tokens": 14256
      },
      "model": "deepseek/deepseek-chat",
      "answer": "根据检索到的上下文，AEACN（Action Taken with Study Treatment）变量的受控术语 codelist 代码为 **C66767**。\n\nCDISC Notes 字段列出的 ICH E2B 示例值包括：\n- \"DRUG WITHDRAWN\"\n- \"DOSE REDUCED\"\n- \"DOSE INCREASED\"\n- \"DOSE NOT CHANGED\"\n- \"UNKNOWN\"\n- \"NOT APPLICABLE\"\n\n**[Source: domains/AE/spec.md -- AEACN]**",
      "elapsed_s": 2.23
    },
    {
      "id": "s05",
      "category": "single_domain",
      "question": "In the VS domain, what is the controlled terminology codelist code for the VSTESTCD variable? Name the codelist, state whether it is extensible, and give three example TESTCD values listed for blood pressure and heart rate.",
      "source_recall": 1.0,
      "source_hits": [
        "domains/VS/spec.md",
        "terminology/core/vs.md"
      ],
      "source_misses": [],
      "top5_sources": [
        "domains/VS/spec.md",
        "terminology/core/vs.md",
        "chapters/ch04_general_assumptions.md",
        "chapters/ch04_general_assumptions.md",
        "domains/IS/assumptions.md"
      ],
      "top5_similarities": [
        0.6639,
        0.4761,
        0.5932,
        0.5578,
        0.5883
      ],
      "fact_recall": 0.8333,
      "fact_hits": [
        "C66741",
        "Vital Signs Test Code",
        "SYSBP",
        "DIABP",
        "HR"
      ],
      "fact_misses": [
        "Extensible: Yes"
      ],
      "answer_preview": "Based on the retrieved context, the controlled terminology codelist for the VSTESTCD variable is **C66741** (Vital Signs Test Code) **[Source: domains/VS/spec.md -- Controlled Terminology]**. The context does not explicitly state whether this codelist is extensible. However, three example TESTCD values for blood pressure and heart rate are:\n\n- **SYSBP** (Systolic Blood Pressure) **[Source: domains/VS/spec.md -- VSTESTCD]**\n- **DIABP** (Diastolic Blood Pressure) **[Source: domains/VS/spec.md -- VSTESTCD]**\n- **PULSE** (Pulse Rate) **[Source: domains/VS/examples.md -- Example 1]**",
      "usage": {
        "prompt_tokens": 14024,
        "completion_tokens": 158,
        "total_tokens": 14182
      },
      "model": "deepseek/deepseek-chat",
      "answer": "Based on the retrieved context, the controlled terminology codelist for the VSTESTCD variable is **C66741** (Vital Signs Test Code) **[Source: domains/VS/spec.md -- Controlled Terminology]**. The context does not explicitly state whether this codelist is extensible. However, three example TESTCD values for blood pressure and heart rate are:\n\n- **SYSBP** (Systolic Blood Pressure) **[Source: domains/VS/spec.md -- VSTESTCD]**\n- **DIABP** (Diastolic Blood Pressure) **[Source: domains/VS/spec.md -- VSTESTCD]**\n- **PULSE** (Pulse Rate) **[Source: domains/VS/examples.md -- Example 1]**",
      "elapsed_s": 2.33
    },
    {
      "id": "q54",
      "category": "single_domain",
      "question": "In the DV (Protocol Deviations) domain, which observation class does it belong to and what is the Topic variable DVTERM?",
      "source_recall": 1.0,
      "source_hits": [
        "domains/DV/spec.md"
      ],
      "source_misses": [],
      "top5_sources": [
        "domains/DV/spec.md",
        "domains/DV/spec.md",
        "domains/DV/spec.md",
        "domains/DV/spec.md",
        "domains/DV/assumptions.md"
      ],
      "top5_similarities": [
        0.7536,
        0.664,
        0.6494,
        0.5789,
        0.7551
      ],
      "fact_recall": 1.0,
      "fact_hits": [
        "Events",
        "DVTERM",
        "Protocol Deviation Term",
        "Topic"
      ],
      "fact_misses": [],
      "answer_preview": "根据检索到的上下文，DV（Protocol Deviations）域属于 **Events** 观察类（Observation Class）[Source: domains/DV/assumptions.md — item_1]。\n\n**DVTERM** 的定义如下：\n\n- **Label:** Protocol Deviation Term\n- **Type:** Char\n- **Role:** Topic\n- **Core:** Req\n- **Controlled Terms:** （无受控术语）\n- **CDISC Notes:** 方案偏离的逐字名称。示例：\"IVRS PROCESS DEVIATION - NO DOSE CALL PERFORMED\"。DVTERM 的值将映射到 DVDECOD 中的受控术语（例如 \"TREATMENT DEVIATION\"）。\n\n[Source: domains/DV/spec.md — DVTERM]",
      "usage": {
        "prompt_tokens": 13490,
        "completion_tokens": 158,
        "total_tokens": 13648
      },
      "model": "deepseek/deepseek-chat",
      "answer": "根据检索到的上下文，DV（Protocol Deviations）域属于 **Events** 观察类（Observation Class）[Source: domains/DV/assumptions.md — item_1]。\n\n**DVTERM** 的定义如下：\n\n- **Label:** Protocol Deviation Term\n- **Type:** Char\n- **Role:** Topic\n- **Core:** Req\n- **Controlled Terms:** （无受控术语）\n- **CDISC Notes:** 方案偏离的逐字名称。示例：\"IVRS PROCESS DEVIATION - NO DOSE CALL PERFORMED\"。DVTERM 的值将映射到 DVDECOD 中的受控术语（例如 \"TREATMENT DEVIATION\"）。\n\n[Source: domains/DV/spec.md — DVTERM]",
      "elapsed_s": 2.88
    },
    {
      "id": "q55",
      "category": "single_domain",
      "question": "What is the structure and observation class of the DS (Disposition) domain, and what is the role of the DSTERM variable?",
      "source_recall": 1.0,
      "source_hits": [
        "domains/DS/spec.md"
      ],
      "source_misses": [],
      "top5_sources": [
        "domains/DS/spec.md",
        "domains/DS/spec.md",
        "domains/DS/spec.md",
        "domains/DS/spec.md",
        "domains/DS/assumptions.md"
      ],
      "top5_similarities": [
        0.6292,
        0.5718,
        0.544,
        0.5266,
        0.5828
      ],
      "fact_recall": 1.0,
      "fact_hits": [
        "Events",
        "DSTERM",
        "Topic",
        "disposition"
      ],
      "fact_misses": [],
      "answer_preview": "## DS（Disposition）域的结构与观察类\n\n### 观察类（Observation Class）\n\nDS 域属于 **Events（事件）** 观察类。根据 SDTM 模型，Events 类域用于记录那些独立发生、可被记录的事件（如不良事件、医疗史、方案偏离等），而 DS 域专门用于记录受试者的**退出事件**和**方案里程碑**。\n\n**[Source: model/01_concepts_and_terms.md — 概念图显示 Events Domains 包含 DS]**\n\n### 域结构\n\nDS 域的核心变量结构如下（基于 SDTMIG v3.4）：\n\n| 变量名 | Label | Type | Role | Core |\n|--------|-------|------|------|------|\n| STUDYID | Study Identifier | Char | Identifier | Req |\n| DOMAIN | Domain Abbreviation | Char | Identifier | Req |\n| USUBJID | Unique Subject Identifier | Char | Identifier | Req |\n| DSSEQ | Sequence Number | Num | Identifier | Req",
      "usage": {
        "prompt_tokens": 14662,
        "completion_tokens": 906,
        "total_tokens": 15568
      },
      "model": "deepseek/deepseek-chat",
      "answer": "## DS（Disposition）域的结构与观察类\n\n### 观察类（Observation Class）\n\nDS 域属于 **Events（事件）** 观察类。根据 SDTM 模型，Events 类域用于记录那些独立发生、可被记录的事件（如不良事件、医疗史、方案偏离等），而 DS 域专门用于记录受试者的**退出事件**和**方案里程碑**。\n\n**[Source: model/01_concepts_and_terms.md — 概念图显示 Events Domains 包含 DS]**\n\n### 域结构\n\nDS 域的核心变量结构如下（基于 SDTMIG v3.4）：\n\n| 变量名 | Label | Type | Role | Core |\n|--------|-------|------|------|------|\n| STUDYID | Study Identifier | Char | Identifier | Req |\n| DOMAIN | Domain Abbreviation | Char | Identifier | Req |\n| USUBJID | Unique Subject Identifier | Char | Identifier | Req |\n| DSSEQ | Sequence Number | Num | Identifier | Req |\n| DSTERM | Reported Term for the Disposition Event | Char | **Topic** | **Req** |\n| DSDECOD | Standardized Disposition Term | Char | Synonym Qualifier | Req |\n| DSCAT | Category for Disposition Event | Char | Grouping Qualifier | Exp |\n| DSSCAT | Subcategory for Disposition Event | Char | Grouping Qualifier | Perm |\n| DSSTDTC | Start Date/Time of Disposition Event | Char | Timing | Exp |\n| EPOCH | Epoch | Char | Timing | Perm |\n\n**[Source: domains/DS/spec.md — 各变量定义；VARIABLE_INDEX.md — DS 变量列表]**\n\n### DSTERM 变量的角色\n\n**DSTERM** 是 DS 域的 **Topic 变量**，Core 为 **Req（必需）**。\n\n- **Label**: Reported Term for the Disposition Event\n- **Type**: Char\n- **Role**: Topic\n- **Core**: Req\n- **Controlled Terms**: 无（自由文本）\n\n**CDISC Notes**: DSTERM 是退出事件或方案里程碑的**原始报告术语**（verbatim name）。部分 DSTERM 的值会与 DSDECOD 相同，但其他值（如 \"Subject moved\"）会映射到 DSDECOD 中的受控术语（如 \"LOST TO FOLLOW-UP\"）。\n\n**[Source: domains/DS/spec.md — DSTERM 定义]**\n\n### 关键业务规则\n\n1. **DS 是 Events 类域**，因此遵循 Events 通用观察类的变量模板（含 Identifier、Topic、Timing 和 Qualifier 变量）。\n\n2. **DS 的 Topic 变量是 DSTERM**（而非像其他 Events 域那样使用 --TERM 命名模式），因为 DS 域使用 DSTERM 作为其特定命名。\n\n3. **DS 是多重主题值拆分规则的例外**：根据通用假设 4.2.8.1，当干预或事件主题变量有多个值时，通常应拆分为多条记录。但 DS 域允许每个退出事件或方案里程碑保留 1 条记录，即使有多个退出原因也无需拆分。\n\n   **[Source: chapters/ch04_general_assumptions.md — 4.2.8.1 Multiple Values for an Intervention or Event Topic Variable]**\n\n4. **DS 不使用以下 Events 类限定符**：--PRESP, --OCCUR, --STAT, --REASND, --BODSYS, --LOC, --SEV, --SER, --ACN, --ACNOTH, --REL, --RELNST, --PATT, --OUT, --SCAN, --SCONG, --SDISAB, --SDTH, --SHOSP, --SLIFE, --SOD, --SMIE, --CONTRT, --TOXGR。\n\n   **[Source: domains/DS/assumptions.md — item_6]**\n\n5. **DS 事件没有结束日期**：退出事件发生在单一时间点，因此使用 DSSTDTC（开始日期/时间）而非结束日期变量。\n\n   **[Source: domains/DS/assumptions.md — item_4a]**",
      "elapsed_s": 8.72
    },
    {
      "id": "q56",
      "category": "single_domain",
      "question": "In the SU (Substance Use) domain, what observation class is it and what is the SUTRT variable?",
      "source_recall": 1.0,
      "source_hits": [
        "domains/SU/spec.md"
      ],
      "source_misses": [],
      "top5_sources": [
        "domains/SU/spec.md",
        "domains/SU/spec.md",
        "domains/SU/spec.md",
        "domains/SU/spec.md",
        "VARIABLE_INDEX.md"
      ],
      "top5_similarities": [
        0.6602,
        0.6404,
        0.6349,
        0.6282,
        0.6701
      ],
      "fact_recall": 1.0,
      "fact_hits": [
        "Interventions",
        "SUTRT",
        "Reported Name of Substance",
        "Topic"
      ],
      "fact_misses": [],
      "answer_preview": "根据 SDTM 模型定义，SU（Substance Use）域属于 **Interventions（干预）观察类**。\n\n**[Source: VARIABLE_INDEX.md — SU — Substance Use (Interventions)]**\n\n**SUTRT** 变量的定义如下：\n\n| 属性 | 值 |\n|------|-----|\n| **变量名** | SUTRT |\n| **Label（标签）** | Reported Name of Substance |\n| **Type（类型）** | Char |\n| **Role（角色）** | Topic |\n| **Core（核心性）** | Req（必需） |\n| **Controlled Terms（受控术语）** | 无（自由文本） |\n| **CDISC Notes** | 物质名称。示例：\"CIGARETTES\"、\"COFFEE\"。 |\n\n**[Source: domains/SU/spec.md — SUTRT]**\n\nSUTRT 是 SU 数据集的主题变量（Topic variable），捕获收集到的物质名称的原始文本或预设文本，且必须始终有值。\n\n**[Source: domains/SU/assumptions.md — item_2a]**",
      "usage": {
        "prompt_tokens": 12692,
        "completion_tokens": 230,
        "total_tokens": 12922
      },
      "model": "deepseek/deepseek-chat",
      "answer": "根据 SDTM 模型定义，SU（Substance Use）域属于 **Interventions（干预）观察类**。\n\n**[Source: VARIABLE_INDEX.md — SU — Substance Use (Interventions)]**\n\n**SUTRT** 变量的定义如下：\n\n| 属性 | 值 |\n|------|-----|\n| **变量名** | SUTRT |\n| **Label（标签）** | Reported Name of Substance |\n| **Type（类型）** | Char |\n| **Role（角色）** | Topic |\n| **Core（核心性）** | Req（必需） |\n| **Controlled Terms（受控术语）** | 无（自由文本） |\n| **CDISC Notes** | 物质名称。示例：\"CIGARETTES\"、\"COFFEE\"。 |\n\n**[Source: domains/SU/spec.md — SUTRT]**\n\nSUTRT 是 SU 数据集的主题变量（Topic variable），捕获收集到的物质名称的原始文本或预设文本，且必须始终有值。\n\n**[Source: domains/SU/assumptions.md — item_2a]**",
      "elapsed_s": 3.26
    },
    {
      "id": "q57",
      "category": "single_domain",
      "question": "What is the PR (Procedures) domain used for, and what is the PRTRT topic variable along with its Core designation?",
      "source_recall": 1.0,
      "source_hits": [
        "domains/PR/spec.md"
      ],
      "source_misses": [],
      "top5_sources": [
        "domains/PR/spec.md",
        "domains/PR/spec.md",
        "domains/PR/spec.md",
        "domains/PR/spec.md",
        "domains/PR/examples.md"
      ],
      "top5_similarities": [
        0.7274,
        0.6199,
        0.6094,
        0.6051,
        0.5826
      ],
      "fact_recall": 1.0,
      "fact_hits": [
        "Interventions",
        "PRTRT",
        "Reported Name of Procedure",
        "Req"
      ],
      "fact_misses": [],
      "answer_preview": "根据检索到的上下文，PR（Procedures）域用于表示**收集到的所有操作/手术程序信息**，无论其生理影响范围如何或是否在研究中被收集。该域基于 Interventions（干预）观察类。从操作/手术程序中获得的测量结果应放在各自的 Findings 域中（例如，活检的组织病理学结果放在 MI 域）。PR 域和 Findings 域之间的关系可以通过 RELREC 数据集来描述。\n\n**PRTRT** 是 PR 域的 Topic 变量，其定义如下：\n\n- **Label:** Reported Name of Procedure\n- **Type:** Char\n- **Role:** Topic\n- **Core:** **Req** (Required)\n- **Controlled Terms:** 无\n- **CDISC Notes:** 执行的操作/手术的名称，可以是预先打印的或从 CRF 上收集的。\n\n**[Source: domains/PR/spec.md — PRTRT]**\n**[Source: domains/PR/assumptions.md — item_1]**",
      "usage": {
        "prompt_tokens": 14696,
        "completion_tokens": 205,
        "total_tokens": 14901
      },
      "model": "deepseek/deepseek-chat",
      "answer": "根据检索到的上下文，PR（Procedures）域用于表示**收集到的所有操作/手术程序信息**，无论其生理影响范围如何或是否在研究中被收集。该域基于 Interventions（干预）观察类。从操作/手术程序中获得的测量结果应放在各自的 Findings 域中（例如，活检的组织病理学结果放在 MI 域）。PR 域和 Findings 域之间的关系可以通过 RELREC 数据集来描述。\n\n**PRTRT** 是 PR 域的 Topic 变量，其定义如下：\n\n- **Label:** Reported Name of Procedure\n- **Type:** Char\n- **Role:** Topic\n- **Core:** **Req** (Required)\n- **Controlled Terms:** 无\n- **CDISC Notes:** 执行的操作/手术的名称，可以是预先打印的或从 CRF 上收集的。\n\n**[Source: domains/PR/spec.md — PRTRT]**\n**[Source: domains/PR/assumptions.md — item_1]**",
      "elapsed_s": 3.76
    },
    {
      "id": "q58",
      "category": "single_domain",
      "question": "Describe the TS (Trial Summary) domain structure and the TSPARMCD variable, including its controlled terminology codelist code and length limit.",
      "source_recall": 1.0,
      "source_hits": [
        "domains/TS/spec.md"
      ],
      "source_misses": [],
      "top5_sources": [
        "domains/TS/spec.md",
        "terminology/core/trial_design.md",
        "VARIABLE_INDEX.md",
        "model/05_study_level_data.md",
        "domains/TS/assumptions.md"
      ],
      "top5_similarities": [
        0.7561,
        0.5199,
        0.715,
        0.5921,
        0.6527
      ],
      "fact_recall": 0.75,
      "fact_hits": [
        "Trial Summary",
        "TSPARMCD",
        "C66738"
      ],
      "fact_misses": [
        "8 characters"
      ],
      "answer_preview": "## TS（Trial Summary）域结构及 TSPARMCD 变量\n\n### TS 域概述\n\nTS（Trial Summary）域允许申办方以结构化格式提交试验摘要。TS 数据集中的每条记录包含一个参数（即试验特征）的值。例如，TS 用于记录试验的基本信息，如试验阶段、方案标题和试验目标。TS 数据集包含计划的和实际的试验特征信息。**[Source: domains/TS/assumptions.md — overview]**\n\nTS 和 TI 数据集是研究方案部分内容的表格化摘要。**[Source: domains/TI/assumptions.md — overview]**\n\n**关键特征：**\n- TS 不包含受试者级别数据。**[Source: domains/TS/assumptions.md — item_13]**\n- 对于某些参数，TS 数据集中可能存在多条记录（例如，一个同时涉及安全性和有效性的试验可以有 2 条 TSPARMCD = \"TTYPE\" 的记录）。**[Source: domains/TS/assumptions.md — item_12]**\n- TSGRPID 可用于关联 TS 数据集中的任何记录块，最常用于同一参数有多条记录时。**[Source: domains/TS/assumptions.md — item_13]**\n\n#",
      "usage": {
        "prompt_tokens": 12771,
        "completion_tokens": 1304,
        "total_tokens": 14075
      },
      "model": "deepseek/deepseek-chat",
      "answer": "## TS（Trial Summary）域结构及 TSPARMCD 变量\n\n### TS 域概述\n\nTS（Trial Summary）域允许申办方以结构化格式提交试验摘要。TS 数据集中的每条记录包含一个参数（即试验特征）的值。例如，TS 用于记录试验的基本信息，如试验阶段、方案标题和试验目标。TS 数据集包含计划的和实际的试验特征信息。**[Source: domains/TS/assumptions.md — overview]**\n\nTS 和 TI 数据集是研究方案部分内容的表格化摘要。**[Source: domains/TI/assumptions.md — overview]**\n\n**关键特征：**\n- TS 不包含受试者级别数据。**[Source: domains/TS/assumptions.md — item_13]**\n- 对于某些参数，TS 数据集中可能存在多条记录（例如，一个同时涉及安全性和有效性的试验可以有 2 条 TSPARMCD = \"TTYPE\" 的记录）。**[Source: domains/TS/assumptions.md — item_12]**\n- TSGRPID 可用于关联 TS 数据集中的任何记录块，最常用于同一参数有多条记录时。**[Source: domains/TS/assumptions.md — item_13]**\n\n### TS 域变量列表\n\n| Order | 变量名 | Label | Type | Role | Core | Controlled Terms |\n|-------|--------|-------|------|------|------|-----------------|\n| 1 | STUDYID | Study Identifier | Char | Identifier | Req | — |\n| 2 | DOMAIN | Domain Abbreviation | Char | Identifier | Req | — |\n| 3 | TSSEQ | Sequence Number | Num | Identifier | Req | — |\n| 4 | TSGRPID | Group ID | Char | Identifier | Perm | — |\n| 5 | TSPARMCD | Trial Summary Parameter Short Name | Char | Topic | Req | C66738 |\n| 6 | TSPARM | Trial Summary Parameter | Char | Synonym Qualifier | Req | C67152 |\n| 7 | TSVAL | Parameter Value | Char | Result Qualifier | Exp | — |\n| 8 | TSVALNF | Parameter Value Null Flavor | Char | Result Qualifier | Perm | ISO 21090 NullFlavor |\n| 9 | TSVALCD | Parameter Value Code | Char | Result Qualifier | Exp | — |\n| 10 | TSVCDREF | Name of the Reference Terminology | Char | Result Qualifier | Exp | C66788 |\n| 11 | TSVCDVER | Version of the Reference Terminology | Char | Result Qualifier | Exp | — |\n\n**[Source: domains/TS/spec.md]**\n\n### TSPARMCD 变量定义\n\n| 属性 | 值 |\n|------|-----|\n| **Order** | 5 |\n| **Label** | Trial Summary Parameter Short Name |\n| **Type** | Char |\n| **Role** | Topic |\n| **Core** | Req（必需） |\n| **Controlled Terms** | C66738（Trial Summary Parameter Test Code） |\n| **长度限制** | 最多 8 个字符 |\n| **字符限制** | 无特殊字符限制（与 --TESTCD 不同） |\n\n**[Source: domains/TS/spec.md — TSPARMCD]**\n\n**CDISC Notes：** TSPARMCD（TSPARM 的配套变量）限制为 8 个字符，且没有特殊字符限制。这些值应简短以便于编程使用，但不期望 TSPARMCD 需要用作变量名。示例：\"AGEMIN\"、\"AGEMAX\"。**[Source: domains/TS/spec.md — TSPARMCD]**\n\n### 受控术语：C66738（Trial Summary Parameter Test Code）\n\n- **Codelist Code：** C66738\n- **Extensible：** 是（可扩展）\n- **用途：** 用于 TSPARMCD 的受控术语\n\n**部分常用值示例：**\n\n| Code | CDISC Submission Value | CDISC Definition |\n|------|----------------------|------------------|\n| C49694 | AGEMAX | Planned Maximum Age of Subjects |\n| C49693 | AGEMIN | Planned Minimum Age of Subjects |\n| C25488 | DOSE | Dose Level; Dose per Administration |\n| C42636 | DOSFRM | Dose Form |\n| C89081 | DOSFRQ | Dosing Frequency |\n| C71137 | DOSRGM | Dose Regimen |\n| C73558 | DOSU | Dose Units |\n| C68612 | COMPTRT | Comparative Treatment Name |\n| C85582 | CURTRT | Current Therapy or Treatment |\n| C98703 | ACTSUB | Actual Number of Subjects |\n\n**[Source: terminology/core/trial_design.md — Trial Summary Parameter Test Code (C66738)]**\n\n### 关于 TSPARMCD 长度限制的重要说明\n\n根据 SDTMIG v3.4 通用假设，TSPARMCD（作为 TSPARM 的配套变量）限制为 8 个字符，且**没有**适用于 --TESTCD 的字符限制（不能以数字开头、不能包含字母/数字/下划线以外的字符）。这些值应简短以便于编程使用，但不期望它们需要用作变量名。**[Source: chapters/ch04_general_assumptions.md — 4.2.1 Variable-Naming Conventions]**\n\n### TSVAL 与受控术语的关系\n\n仅当 TSVAL 存在受控术语时，TSVALCD 才有代码值。例如，当 TSPARMCD = \"PLANSUB\"（计划受试者数）或 TSPARMCD = \"TITLE\"（试验标题）时，TSVALCD 为空。**[Source: domains/TS/assumptions.md — item_9]**\n\n对于某些试验摘要参数，CDISC 受控术语包含用于 TSVAL 的 codelist。TSPARM 与响应 codelist 之间的关联可在 CDISC 受控术语的 TS codetable 中找到。申办方也可以为 TSVAL 指定受控术语。**[Source: domains/TS/assumptions.md — item_8]**",
      "elapsed_s": 10.18
    },
    {
      "id": "q59",
      "category": "single_domain",
      "question": "In the DD (Death Details) domain, what is the DDTESTCD variable and its controlled terminology codelist code?",
      "source_recall": 1.0,
      "source_hits": [
        "domains/DD/spec.md"
      ],
      "source_misses": [],
      "top5_sources": [
        "domains/DD/spec.md",
        "terminology/core/other_part4.md",
        "domains/DD/spec.md",
        "VARIABLE_INDEX.md",
        "domains/DD/spec.md"
      ],
      "top5_similarities": [
        0.766,
        0.6055,
        0.7584,
        0.6406,
        0.7599
      ],
      "fact_recall": 1.0,
      "fact_hits": [
        "DDTESTCD",
        "C116108",
        "Topic"
      ],
      "fact_misses": [],
      "answer_preview": "根据检索到的上下文，DD（Death Details）域中的 **DDTESTCD** 变量定义如下：\n\n- **Label:** Death Detail Assessment Short Name\n- **Type:** Char\n- **Controlled Terms:** C116108\n- **Role:** Topic\n- **Core:** Req\n- **CDISC Notes:** 是 DDTEST 中描述的测量、检验或检查的短名称。当将数据集从垂直格式转换为水平格式时，可用作列名。DDTESTCD 的值不能超过 8 个字符，不能以数字开头（例如，\"1TEST\" 无效），且不能包含字母、数字或下划线以外的字符。示例：\"PRCDTH\"、\"SECDTH\"。\n\n**[Source: domains/DD/spec.md — DDTESTCD]**\n\n其受控术语代码为 **C116108**，对应的术语集是 **SDTM Death Diagnosis and Details Test Code**，该术语集是可扩展的（Extensible: Yes），包含的值有：\n\n| Code | CDISC Submission Value | CDISC Synonym(s) |\n|------|----------------------|------------------",
      "usage": {
        "prompt_tokens": 12403,
        "completion_tokens": 415,
        "total_tokens": 12818
      },
      "model": "deepseek/deepseek-chat",
      "answer": "根据检索到的上下文，DD（Death Details）域中的 **DDTESTCD** 变量定义如下：\n\n- **Label:** Death Detail Assessment Short Name\n- **Type:** Char\n- **Controlled Terms:** C116108\n- **Role:** Topic\n- **Core:** Req\n- **CDISC Notes:** 是 DDTEST 中描述的测量、检验或检查的短名称。当将数据集从垂直格式转换为水平格式时，可用作列名。DDTESTCD 的值不能超过 8 个字符，不能以数字开头（例如，\"1TEST\" 无效），且不能包含字母、数字或下划线以外的字符。示例：\"PRCDTH\"、\"SECDTH\"。\n\n**[Source: domains/DD/spec.md — DDTESTCD]**\n\n其受控术语代码为 **C116108**，对应的术语集是 **SDTM Death Diagnosis and Details Test Code**，该术语集是可扩展的（Extensible: Yes），包含的值有：\n\n| Code | CDISC Submission Value | CDISC Synonym(s) |\n|------|----------------------|------------------|\n| C135383 | AGEDTH | Age at Death |\n| C135384 | AUTOPIND | Autopsy Indicator |\n| C135385 | DTHCOIND | Death Certificate Obtained Indicator |\n| C184505 | DTHEXIND | Death Expected Indicator |\n| C170571 | DTHWIND | Death Witnessed Indicator |\n| C135386 | HMROIND | Hospital Medical Record Obtained Ind |\n| C176287 | INFOSCOD | Information Source for Cause of Death |\n| C124331 | LOCDTH | Location of Death |\n| C99531 | PRCDTH | Primary Cause of Death |\n| C174284 | SDTHIND | Sudden Death Indicator |\n| C116142 | SECDTH | Secondary Cause of Death |\n\n**[Source: terminology/core/other_part4.md — SDTM Death Diagnosis and Details Test Code (C116108)]**",
      "elapsed_s": 4.06
    },
    {
      "id": "q60",
      "category": "single_domain",
      "question": "What is the CE (Clinical Events) domain, which observation class does it belong to, and what is the CETERM variable?",
      "source_recall": 1.0,
      "source_hits": [
        "domains/CE/spec.md"
      ],
      "source_misses": [],
      "top5_sources": [
        "domains/CE/spec.md",
        "domains/CE/spec.md",
        "domains/CE/spec.md",
        "domains/CE/spec.md",
        "VARIABLE_INDEX.md"
      ],
      "top5_similarities": [
        0.6749,
        0.6509,
        0.6345,
        0.6182,
        0.6815
      ],
      "fact_recall": 1.0,
      "fact_hits": [
        "Events",
        "CETERM",
        "Topic",
        "Clinical Event"
      ],
      "fact_misses": [],
      "answer_preview": "## CE（Clinical Events）域概述\n\n**CE（Clinical Events）域** 用于收集临床事件数据，这些事件是方案定义的临床关注事件，但不属于不良事件（AE）。例如，在偏头痛研究中，偏头痛本身可能不被视为AE，而是作为临床事件记录在CE域中。CE域也用于追踪作为疗效终点的特定事件（如短暂性脑缺血发作、卒中、死亡等）[Source: domains/CE/assumptions.md item_1]。\n\n---\n\n## 所属观察类\n\nCE域属于 **Events（事件）观察类**（Events Observation Class）[Source: domains/CE/assumptions.md item_6]。\n\nEvents观察类的结构为 **\"一条记录一个事件\"**（One Record per Event），代表方案中计划的里程碑事件以及研究期间或研究前发生的独立于计划评估的事件、状况或事件[Source: model/02_observation_classes.md §3.1.2]。\n\n---\n\n## CETERM 变量定义\n\n| 属性 | 值 |\n|------|-----|\n| **变量名** | CETERM |\n| **Label（标签）** | Reported Term for the Clinical Event（临床事件报告术语",
      "usage": {
        "prompt_tokens": 17293,
        "completion_tokens": 400,
        "total_tokens": 17693
      },
      "model": "deepseek/deepseek-chat",
      "answer": "## CE（Clinical Events）域概述\n\n**CE（Clinical Events）域** 用于收集临床事件数据，这些事件是方案定义的临床关注事件，但不属于不良事件（AE）。例如，在偏头痛研究中，偏头痛本身可能不被视为AE，而是作为临床事件记录在CE域中。CE域也用于追踪作为疗效终点的特定事件（如短暂性脑缺血发作、卒中、死亡等）[Source: domains/CE/assumptions.md item_1]。\n\n---\n\n## 所属观察类\n\nCE域属于 **Events（事件）观察类**（Events Observation Class）[Source: domains/CE/assumptions.md item_6]。\n\nEvents观察类的结构为 **\"一条记录一个事件\"**（One Record per Event），代表方案中计划的里程碑事件以及研究期间或研究前发生的独立于计划评估的事件、状况或事件[Source: model/02_observation_classes.md §3.1.2]。\n\n---\n\n## CETERM 变量定义\n\n| 属性 | 值 |\n|------|-----|\n| **变量名** | CETERM |\n| **Label（标签）** | Reported Term for the Clinical Event（临床事件报告术语） |\n| **Type（类型）** | Char（字符型） |\n| **Controlled Terms（受控术语）** | 无（自由文本） |\n| **Role（角色）** | Topic（主题变量） |\n| **Core（核心性）** | Req（必需） |\n| **CDISC Notes** | 医学状况或事件的术语。很可能预先印在CRF上。[Source: domains/CE/spec.md — CETERM] |\n\nCETERM 是CE域的主题变量，记录临床事件的原始报告术语。在Events观察类中，主题变量（--TERM）是\"收集的事件观察名称\"[Source: model/02_observation_classes.md §3.1.2]。",
      "elapsed_s": 5.08
    },
    {
      "id": "q61",
      "category": "single_domain",
