{
  "summary": {
    "n_questions": 140,
    "model": "deepseek/deepseek-chat",
    "threshold": 0.85,
    "source_recall_avg": 0.9964,
    "source_recall_by_category": {
      "concept": 1.0,
      "cross_domain": 0.99,
      "mixed": 1.0,
      "single_domain": 1.0
    },
    "fact_recall_avg": 0.7906,
    "fact_recall_by_category": {
      "concept": 0.8407,
      "cross_domain": 0.6867,
      "mixed": 0.94,
      "single_domain": 0.7958
    },
    "total_tokens": 2167586,
    "overall": 0.8935,
    "overall_metric": "substring",
    "verdict": "PASS",
    "top_k": 15,
    "structured_lookup": true,
    "hybrid": {
      "fusion": "rrf",
      "alpha": null
    },
    "prompt_guardrail": true,
    "structured_answer": true
  },
  "results": [
    {
      "id": "q01",
      "category": "single_domain",
      "question": "What is AETERM and what are its variable attributes in the AE domain?",
      "source_recall": 1.0,
      "source_hits": [
        "domains/AE/spec.md"
      ],
      "source_misses": [],
      "top5_sources": [
        "domains/AE/spec.md",
        "domains/AE/spec.md",
        "domains/AE/spec.md",
        "domains/AE/spec.md",
        "domains/AE/assumptions.md"
      ],
      "top5_similarities": [
        0.5884,
        0.5778,
        0.5484,
        0.5477,
        0.6641
      ],
      "fact_recall": 1.0,
      "fact_hits": [
        "Topic",
        "Char",
        "Req",
        "Verbatim"
      ],
      "fact_misses": [],
      "answer_preview": "根据 SDTMIG v3.4 的定义，**AETERM** 是 AE（不良事件）域中的变量，其属性如下：\n\n- **Order（顺序）:** 9\n- **Label（标签）:** Reported Term for the Adverse Event\n- **Type（类型）:** Char（字符型）\n- **Controlled Terms（受控术语）:** 无\n- **Role（角色）:** Topic（主题变量）\n- **Core（核心性）:** Req（必需）\n- **CDISC Notes（CDISC 注释）:** Verbatim name of the event.（事件的逐字名称。）\n\n**[Source: domains/AE/spec.md -- AETERM]**\n\n此外，根据 AE 域的假设说明：\n- AETERM 捕获事件收集到的逐字术语，是 AE 数据集的主题变量，且为必需变量，必须有值。\n- 如果申办方允许修改逐字术语以利于编码，修改后的文本存储在 AEMODIFY 中。\n- 编码后的首选术语（如 MedDRA PT）存储在 AEDECOD 中。\n\n**[Source: domains/AE/assumptions.md -- item_2]**",
      "usage": {
        "prompt_tokens": 14042,
        "completion_tokens": 244,
        "total_tokens": 14286
      },
      "model": "deepseek/deepseek-chat",
      "answer": "根据 SDTMIG v3.4 的定义，**AETERM** 是 AE（不良事件）域中的变量，其属性如下：\n\n- **Order（顺序）:** 9\n- **Label（标签）:** Reported Term for the Adverse Event\n- **Type（类型）:** Char（字符型）\n- **Controlled Terms（受控术语）:** 无\n- **Role（角色）:** Topic（主题变量）\n- **Core（核心性）:** Req（必需）\n- **CDISC Notes（CDISC 注释）:** Verbatim name of the event.（事件的逐字名称。）\n\n**[Source: domains/AE/spec.md -- AETERM]**\n\n此外，根据 AE 域的假设说明：\n- AETERM 捕获事件收集到的逐字术语，是 AE 数据集的主题变量，且为必需变量，必须有值。\n- 如果申办方允许修改逐字术语以利于编码，修改后的文本存储在 AEMODIFY 中。\n- 编码后的首选术语（如 MedDRA PT）存储在 AEDECOD 中。\n\n**[Source: domains/AE/assumptions.md -- item_2]**",
      "elapsed_s": 4.69
    },
    {
      "id": "q02",
      "category": "single_domain",
      "question": "What are the required (Core=Req) variables in the DM domain?",
      "source_recall": 1.0,
      "source_hits": [
        "domains/DM/spec.md"
      ],
      "source_misses": [],
      "top5_sources": [
        "domains/DM/spec.md",
        "domains/DM/spec.md",
        "domains/DM/spec.md",
        "domains/DM/spec.md",
        "chapters/ch04_general_assumptions.md"
      ],
      "top5_similarities": [
        0.4813,
        0.4255,
        0.4052,
        0.404,
        0.5064
      ],
      "fact_recall": 1.0,
      "fact_hits": [
        "STUDYID",
        "DOMAIN",
        "USUBJID",
        "SUBJID",
        "SITEID",
        "SEX",
        "COUNTRY"
      ],
      "fact_misses": [],
      "answer_preview": "根据 SDTMIG v3.4，**DM（Demographics）域**的 **Core=Req（必需）** 变量如下：\n\n| 变量名 | Label | Type | Role | Core |\n|--------|-------|------|------|------|\n| **STUDYID** | Study Identifier | Char | Identifier | Req |\n| **DOMAIN** | Domain Abbreviation | Char | Identifier | Req |\n| **USUBJID** | Unique Subject Identifier | Char | Identifier | Req |\n| **SUBJID** | Subject Identifier for the Study | Char | Topic | Req |\n| **RFSTDTC** | Subject Reference Start Date/Time | Char | Timing | Req |\n| **RFENDTC** | Subject Reference End Date/Time | Char | Timing | Req |\n| **SITEID** | Study Site Identifier | Char | Iden",
      "usage": {
        "prompt_tokens": 13834,
        "completion_tokens": 542,
        "total_tokens": 14376
      },
      "model": "deepseek/deepseek-chat",
      "answer": "根据 SDTMIG v3.4，**DM（Demographics）域**的 **Core=Req（必需）** 变量如下：\n\n| 变量名 | Label | Type | Role | Core |\n|--------|-------|------|------|------|\n| **STUDYID** | Study Identifier | Char | Identifier | Req |\n| **DOMAIN** | Domain Abbreviation | Char | Identifier | Req |\n| **USUBJID** | Unique Subject Identifier | Char | Identifier | Req |\n| **SUBJID** | Subject Identifier for the Study | Char | Topic | Req |\n| **RFSTDTC** | Subject Reference Start Date/Time | Char | Timing | Req |\n| **RFENDTC** | Subject Reference End Date/Time | Char | Timing | Req |\n| **SITEID** | Study Site Identifier | Char | Identifier | Req |\n| **BRTHDTC** | Date/Time of Birth | Char | Timing | Req |\n| **SEX** | Sex | Char | Qualifier | Req |\n| **RACE** | Race | Char | Qualifier | Req |\n| **ETHNIC** | Ethnicity | Char | Qualifier | Req |\n| **ARMCD** | Planned Arm Code | Char | Qualifier | Req |\n| **ARM** | Description of Planned Arm | Char | Qualifier | Req |\n| **ACTARMCD** | Actual Arm Code | Char | Qualifier | Req |\n| **ACTARM** | Description of Actual Arm | Char | Qualifier | Req |\n| **COUNTRY** | Country | Char | Qualifier | Req |\n| **DMDTC** | Date/Time of Collection | Char | Timing | Req |\n| **DMDY** | Study Day of Collection | Num | Timing | Req |\n\n**说明：**\n- DM 域是 Special-Purpose 域，是所有人类临床受试者观察的父域 [Source: domains/DM/assumptions.md]。\n- DOMAIN 变量是域的两个字母缩写，作为标识符 [Source: domains/DM/spec.md]。\n- 所有 Req 变量必须始终包含在数据集中，且不能为任何记录留空 [Source: chapters/ch04_general_assumptions.md §4.1.5]。\n- DM 域中除 DMDTC 和 DMDY 外的所有变量均不使用域标识符前缀，这是对通用前缀规则的例外 [Source: chapters/ch04_general_assumptions.md §4.2.2]。",
      "elapsed_s": 6.36
    },
    {
      "id": "q03",
      "category": "single_domain",
      "question": "What are the key assumptions for adverse event data collection and coding?",
      "source_recall": 1.0,
      "source_hits": [
        "domains/AE/assumptions.md"
      ],
      "source_misses": [],
      "top5_sources": [
        "domains/AE/assumptions.md",
        "domains/FA/examples.md",
        "domains/AE/assumptions.md",
        "domains/AE/assumptions.md",
        "domains/AE/assumptions.md"
      ],
      "top5_similarities": [
        0.5933,
        0.5046,
        0.5602,
        0.5767,
        0.5724
      ],
      "fact_recall": 1.0,
      "fact_hits": [
        "AETERM",
        "MedDRA",
        "AEDECOD"
      ],
      "fact_misses": [],
      "answer_preview": "根据 SDTMIG v3.4 中 AE 域的假设，不良事件数据收集和编码的关键假设如下：\n\n### 1. 数据收集范围\n不良事件数据集包含临床数据，描述\"在患者或临床研究受试者使用药物后出现的任何不良医学事件，且该事件不一定与治疗有因果关系\"（ICH E2A）。经与监管机构协商，申办方可以扩展或限制不良事件收集的范围（例如，收集与试验操作相关的治疗前事件，或不收集被评估为疗效终点的事件）。AE 数据集中包含的事件应与方案要求一致。不良事件可以通过自由文本或预设术语列表来收集 **[Source: domains/AE/assumptions.md -- item_1]**。\n\n### 2. AE 描述与编码\n- **AETERM**：捕获事件的原始术语（verbatim term），是 AE 数据集的主题变量（Topic Variable），为必需变量，必须有值 **[Source: domains/AE/assumptions.md -- item_2a]**。\n- **AEMODIFY**：如果申办方的流程允许修改原始术语以便编码，则应包含此变量，并根据申办方的流程填写 **[Source: domains/AE/assumptions.md -- item_2b]**。\n- **AEDECOD**：由申办方根据编码词典派生的首选术语（Preferred Term），为必需变量",
      "usage": {
        "prompt_tokens": 16502,
        "completion_tokens": 1145,
        "total_tokens": 17647
      },
      "model": "deepseek/deepseek-chat",
      "answer": "根据 SDTMIG v3.4 中 AE 域的假设，不良事件数据收集和编码的关键假设如下：\n\n### 1. 数据收集范围\n不良事件数据集包含临床数据，描述\"在患者或临床研究受试者使用药物后出现的任何不良医学事件，且该事件不一定与治疗有因果关系\"（ICH E2A）。经与监管机构协商，申办方可以扩展或限制不良事件收集的范围（例如，收集与试验操作相关的治疗前事件，或不收集被评估为疗效终点的事件）。AE 数据集中包含的事件应与方案要求一致。不良事件可以通过自由文本或预设术语列表来收集 **[Source: domains/AE/assumptions.md -- item_1]**。\n\n### 2. AE 描述与编码\n- **AETERM**：捕获事件的原始术语（verbatim term），是 AE 数据集的主题变量（Topic Variable），为必需变量，必须有值 **[Source: domains/AE/assumptions.md -- item_2a]**。\n- **AEMODIFY**：如果申办方的流程允许修改原始术语以便编码，则应包含此变量，并根据申办方的流程填写 **[Source: domains/AE/assumptions.md -- item_2b]**。\n- **AEDECOD**：由申办方根据编码词典派生的首选术语（Preferred Term），为必需变量，必须有值。通常使用 MedDRA 等标准词典对报告术语（AETERM）进行编码。申办方应在 Define-XML 文档中使用外部编码列表元素提供所使用的词典名称和版本 **[Source: domains/AE/assumptions.md -- item_2c]**。\n- **AEBODSYS**：申办方根据编码词典为不良事件关联的系统器官分类（SOC）。该值可能与编码词典标准层级中指定的主 SOC 不同。此变量应被填写 **[Source: domains/AE/assumptions.md -- item_2d]**。\n\n### 3. 预设术语与事件存在性\n- 如果使用预设术语列表收集不良事件，则使用 `AEPRESP = \"Y\"` 来指示 AETERM 中的事件是在 CRF 上预设的 **[Source: domains/AE/assumptions.md -- item_4a]**。\n- 如果既需要知道预设列表中哪些事件未发生，也需要知道哪些发生了，则应在 Findings 类数据集（如 FA 域）中提交这些数据。实际发生的不良事件应在 AE 数据集中有记录，且 `AEPRESP = \"Y\"` **[Source: domains/AE/assumptions.md -- item_4b]**。\n- 如果研究同时收集预设不良事件和自由文本事件，则所有预设事件的 `AEPRESP` 应为 \"Y\"，自由文本报告的事件应为空 **[Source: domains/AE/assumptions.md -- item_4c]**。\n- 对于表示\"无不良事件\"的记录，不应包含在提交的 AE 数据集中。提交的 AE 数据集应仅包含实际发生的不良事件记录 **[Source: domains/AE/assumptions.md -- item_4d]**。\n\n### 4. 其他限定词变量\n- 如果严重性类别是次要收集的（例如，先问\"是否严重？\"，如果回答\"否\"，则严重性类别变量可为空；如果回答\"是\"，则至少有一个类别变量为\"Y\"） **[Source: domains/AE/assumptions.md -- item_7a]**。\n- 严重性类别\"涉及癌症\"（AESCAN）和\"与用药过量同时发生\"（AESOD）不属于 ICH 严重不良事件定义的一部分，但可用于在 FDA 采用 ICH 定义之前进行的指南下的研究 **[Source: domains/AE/assumptions.md -- item_7b]**。\n- 当收集\"其他医学重要严重不良事件\"类别的描述时，应使用标准补充限定词名称代码 `AEOSP` 将其放入 SUPPAE 数据集中 **[Source: domains/AE/assumptions.md -- item_7c]**。\n- 在使用标准毒性分级量表（如 CTCAE）的研究中，应使用 `AETOXGR` 代替 `AESEV`。在大多数情况下，只填写 `AESEV` 或 `AETOXGR` 其中之一，但可能存在两者都需要填写的情况 **[Source: domains/AE/assumptions.md -- item_7d]**。\n\n### 5. 事件定义与数据集结构\nAE 域的结构是每个受试者每个不良事件一条记录。由申办方负责定义事件。该定义可能因申办方描述和报告产品安全性的要求而异，通常会在方案中描述。例如，申办方可以提交一条覆盖事件从开始到结束的记录；或者，如果需要更细粒度地评估 AE，申办方可以在严重程度、因果关系或严重性发生变化或恶化时提交新记录 **[Source: domains/AE/assumptions.md -- item_7e]**。\n\n### 6. EPOCH 和 TAETORD 的使用\n当 AE 域中包含 `EPOCH` 时，它应基于不良事件开始的日期（`AESTDTC`），而不是结束日期（`AEENDTC`）。同样，如果包含 `TAETORD`，也应基于不良事件开始的日期。Define-XML 文档中的计算方法应描述处理歧义情况的任何假设 **[Source: domains/AE/assumptions.md -- item_8]**。",
      "elapsed_s": 13.37
    },
    {
      "id": "q04",
      "category": "single_domain",
      "question": "What is the purpose of the TV (Trial Visits) domain and what variables does it contain?",
      "source_recall": 1.0,
      "source_hits": [
        "domains/TV/spec.md"
      ],
      "source_misses": [],
      "top5_sources": [
        "domains/TV/spec.md",
        "domains/TV/spec.md",
        "domains/TV/spec.md",
        "domains/TV/spec.md",
        "domains/SV/assumptions.md"
      ],
      "top5_similarities": [
        0.5894,
        0.4733,
        0.4706,
        0.47,
        0.6873
      ],
      "fact_recall": 1.0,
      "fact_hits": [
        "VISITNUM",
        "VISIT"
      ],
      "fact_misses": [],
      "answer_preview": "## TV（Trial Visits）域的目的与变量\n\n### 目的\n\nTV（Trial Visits）域是试验设计（Trial Design）类域，用于定义方案中规定的计划访视安排。它描述了受试者在医疗机构的计划性临床接触（clinical encounters），包括访视的时间安排规则。TV 数据集提供了计划访视的标准化描述，使得受试者的实际访视（记录在 SV 域中）可以与计划访视进行比较，从而识别计划但未完成的访视以及实际访视时间与计划时间的偏差。\n\n**[Source: domains/TV/assumptions.md — overview]**\n\nTV 域与 TD（Trial Disease Assessments）和 TM（Trial Disease Milestones）共同构成试验评估计划安排（Schedule for Assessments）部分。\n\n**[Source: domains/TV/assumptions.md — §7.3]**\n\n### 变量列表\n\nTV 域共包含 **9 个变量**，按顺序排列如下：\n\n| Order | 变量名 | Label | Type | Role | Core |\n|-------|--------|-------|------|------|------|\n| 1 | STUDYID | Study Identifi",
      "usage": {
        "prompt_tokens": 14412,
        "completion_tokens": 723,
        "total_tokens": 15135
      },
      "model": "deepseek/deepseek-chat",
      "answer": "## TV（Trial Visits）域的目的与变量\n\n### 目的\n\nTV（Trial Visits）域是试验设计（Trial Design）类域，用于定义方案中规定的计划访视安排。它描述了受试者在医疗机构的计划性临床接触（clinical encounters），包括访视的时间安排规则。TV 数据集提供了计划访视的标准化描述，使得受试者的实际访视（记录在 SV 域中）可以与计划访视进行比较，从而识别计划但未完成的访视以及实际访视时间与计划时间的偏差。\n\n**[Source: domains/TV/assumptions.md — overview]**\n\nTV 域与 TD（Trial Disease Assessments）和 TM（Trial Disease Milestones）共同构成试验评估计划安排（Schedule for Assessments）部分。\n\n**[Source: domains/TV/assumptions.md — §7.3]**\n\n### 变量列表\n\nTV 域共包含 **9 个变量**，按顺序排列如下：\n\n| Order | 变量名 | Label | Type | Role | Core |\n|-------|--------|-------|------|------|------|\n| 1 | STUDYID | Study Identifier | Char | Identifier | Req |\n| 2 | DOMAIN | Domain Abbreviation | Char | Identifier | Req |\n| 3 | VISITNUM | Visit Number | Num | Topic | Req |\n| 4 | VISIT | Visit Name | Char | Synonym Qualifier | Req |\n| 5 | VISITDY | Planned Study Day of Visit | Num | Timing | Req |\n| 6 | ARMCD | Planned Arm Code | Char | Topic | Perm |\n| 7 | ARM | Description of Planned Arm | Char | Synonym Qualifier | Perm |\n| 8 | TVSTRL | Visit Start Rule | Char | Rule | Req |\n| 9 | TVENRL | Visit End Rule | Char | Rule | Perm |\n\n**[Source: domains/TV/spec.md — Model Definition; VARIABLE_INDEX.md — TV]**\n\n### 关键说明\n\n- **数据结构**：默认结构为\"每个计划访视一条记录\"（One Record per Planned Visit）。如果不同臂的访视安排不同，则结构为\"每个臂每个计划访视一条记录\"（One Record per Planned Visit per Arm），此时 ARMCD 和 ARM 需填充所有记录。\n\n  **[Source: domains/TV/assumptions.md — item_1]**\n\n- **VISITNUM**：数值型，用于排序，应尽可能与计划访视的时间顺序一致。\n\n- **VISIT**：字符型，来自方案的访视名称，与 VISITNUM 必须保持一一对应关系。\n\n- **VISITDY**：计划访视开始的研究日（非实际研究日）。\n\n- **TVSTRL/TVENRL**：规则变量，描述访视相对于元素或时期（epoch）开始/结束的时间规则（例如：\"Start of Screen Epoch\"、\"1 week after start of Treatment Epoch\"）。\n\n  **[Source: chapters/ch04_general_assumptions.md — §4.4.5]**\n\n- **相关域**：同属 Trial Design 类的域包括 TA、TD、TE、TI、TM、TS。SV（Subject Visits）域记录受试者的实际访视情况，可与 TV 域进行对比分析。\n\n  **[Source: domains/TV/spec.md — Related Domains; domains/SV/assumptions.md — item_1]**",
      "elapsed_s": 8.93
    },
    {
      "id": "q05",
      "category": "single_domain",
      "question": "In the PE (Physical Examination) domain, what is the structure of the dataset, what is the role of the PETESTCD variable, and what value should PETESTCD have when the results of the entire physical examination are represented in one record?",
      "source_recall": 1.0,
      "source_hits": [
        "domains/PE/spec.md"
      ],
      "source_misses": [],
      "top5_sources": [
        "domains/PE/spec.md",
        "domains/PE/spec.md",
        "domains/PE/spec.md",
        "domains/PE/spec.md",
        "VARIABLE_INDEX.md"
      ],
      "top5_similarities": [
        0.731,
        0.7026,
        0.5645,
        0.5643,
        0.6909
      ],
      "fact_recall": 1.0,
      "fact_hits": [
        "PETESTCD",
        "Topic",
        "PHYSEXAM"
      ],
      "fact_misses": [],
      "answer_preview": "Based on the retrieved context, here are the answers to your questions about the PE (Physical Examination) domain:\n\n**1. Dataset Structure**\n\nThe PE domain has a structure of **\"One record per body system or abnormality per visit per subject\"** and belongs to the **Findings** class. **[Source: Structured Facts]**\n\n**2. Role of PETESTCD**\n\nThe variable **PETESTCD** (Body System Examined Short Name) has a **Role** of **Topic**. **[Source: domains/PE/spec.md]**\n\n**3. Value for a Single Record Representing the Entire Examination**\n\nWhen the results of the entire physical examination are represente",
      "usage": {
        "prompt_tokens": 17070,
        "completion_tokens": 168,
        "total_tokens": 17238
      },
      "model": "deepseek/deepseek-chat",
      "answer": "Based on the retrieved context, here are the answers to your questions about the PE (Physical Examination) domain:\n\n**1. Dataset Structure**\n\nThe PE domain has a structure of **\"One record per body system or abnormality per visit per subject\"** and belongs to the **Findings** class. **[Source: Structured Facts]**\n\n**2. Role of PETESTCD**\n\nThe variable **PETESTCD** (Body System Examined Short Name) has a **Role** of **Topic**. **[Source: domains/PE/spec.md]**\n\n**3. Value for a Single Record Representing the Entire Examination**\n\nWhen the results of the entire physical examination are represented in one record, the value in **PETESTCD** should be **\"PHYSEXAM\"**. **[Source: domains/PE/spec.md]**",
      "elapsed_s": 2.87
    },
    {
      "id": "q21",
      "category": "single_domain",
      "question": "What is the LBTESTCD variable in the LB (Laboratory Test Results) domain? Describe its role, controlled terminology codelist code, and naming constraints.",
      "source_recall": 1.0,
      "source_hits": [
        "domains/LB/spec.md"
      ],
      "source_misses": [],
      "top5_sources": [
        "domains/LB/spec.md",
        "terminology/core/lb_part2.md",
        "domains/LB/spec.md",
        "domains/LB/assumptions.md",
        "domains/LB/examples.md"
      ],
      "top5_similarities": [
        0.7837,
        0.5222,
        0.7118,
        0.7499,
        0.6639
      ],
      "fact_recall": 0.6667,
      "fact_hits": [
        "Topic",
        "C65047"
      ],
      "fact_misses": [
        "8 characters"
      ],
      "answer_preview": "根据 SDTMIG v3.4 规范，**LBTESTCD** 是 LB（Laboratory Test Results）域中的一个变量。\n\n以下是其详细定义：\n\n- **Label（标签）**: Lab Test or Examination Short Name\n- **Type（类型）**: Char（字符型）\n- **Role（角色）**: Topic（主题变量）\n- **Core（核心性）**: Req（必需）\n- **Controlled Terms（受控术语）**: C65047\n- **CDISC Notes（CDISC 注释）**: 这是 LBTEST 中描述的测量、检验或检查的短名称。当将数据集从垂直格式转换为水平格式时，它可以用作列名。LBTESTCD 的值不能超过 8 个字符，也不能以数字开头（例如，\"1TEST\" 无效）。LBTESTCD 不能包含字母、数字或下划线以外的字符。示例：\"ALT\", \"LDH\"。\n\n**[Source: domains/LB/spec.md]**\n\n**总结：**\nLBTESTCD 是 LB 域的主题变量，用于唯一且简洁地标识实验室检验项目。它必须使用受控术语（codelist code: C65047），并且有严格的命名约束：长度不超过 8 个字符，不能以数字开头，且只能包含字母、数字或下划线。\n\n---\n\n**Authori",
      "usage": {
        "prompt_tokens": 16348,
        "completion_tokens": 281,
        "total_tokens": 16629
      },
      "model": "deepseek/deepseek-chat",
      "answer": "根据 SDTMIG v3.4 规范，**LBTESTCD** 是 LB（Laboratory Test Results）域中的一个变量。\n\n以下是其详细定义：\n\n- **Label（标签）**: Lab Test or Examination Short Name\n- **Type（类型）**: Char（字符型）\n- **Role（角色）**: Topic（主题变量）\n- **Core（核心性）**: Req（必需）\n- **Controlled Terms（受控术语）**: C65047\n- **CDISC Notes（CDISC 注释）**: 这是 LBTEST 中描述的测量、检验或检查的短名称。当将数据集从垂直格式转换为水平格式时，它可以用作列名。LBTESTCD 的值不能超过 8 个字符，也不能以数字开头（例如，\"1TEST\" 无效）。LBTESTCD 不能包含字母、数字或下划线以外的字符。示例：\"ALT\", \"LDH\"。\n\n**[Source: domains/LB/spec.md]**\n\n**总结：**\nLBTESTCD 是 LB 域的主题变量，用于唯一且简洁地标识实验室检验项目。它必须使用受控术语（codelist code: C65047），并且有严格的命名约束：长度不超过 8 个字符，不能以数字开头，且只能包含字母、数字或下划线。\n\n---\n\n**Authoritative correction (SDTM metadata):**\n- LBTESTCD appears in exactly 1 SDTM domains.\n- LB contains exactly 62 variables.",
      "elapsed_s": 4.42
    },
    {
      "id": "q22",
      "category": "single_domain",
      "question": "What is the VS (Vital Signs) domain and what are some examples of VSTESTCD values? Include the codelist code.",
      "source_recall": 1.0,
      "source_hits": [
        "domains/VS/spec.md"
      ],
      "source_misses": [],
      "top5_sources": [
        "domains/VS/spec.md",
        "terminology/core/vs.md",
        "domains/VS/spec.md",
        "VARIABLE_INDEX.md",
        "domains/VS/assumptions.md"
      ],
      "top5_similarities": [
        0.7384,
        0.5465,
        0.6467,
        0.6305,
        0.6914
      ],
      "fact_recall": 1.0,
      "fact_hits": [
        "Findings",
        "VSTESTCD",
        "C66741"
      ],
      "fact_misses": [],
      "answer_preview": "## VS（生命体征）域概述\n\n**VS**（Vital Signs，生命体征）域属于 **Findings** 观察类，其结构为 **每个受试者每个访视每个时间点的每次生命体征测量一条记录**。该域共包含 **38** 个变量。 **[Source: Structured Facts]**\n\n---\n\n## VSTESTCD 变量定义\n\n| 属性 | 值 |\n|------|-----|\n| **Label** | Vital Signs Test Short Name |\n| **Type** | Char |\n| **Role** | Topic |\n| **Core** | Req |\n| **Controlled Terms** | C66741 |\n| **CDISC Notes** | 测量、检验或检查的短名称，对应 VSTEST 中的描述。VSTESTCD 值不能超过 8 个字符，不能以数字开头，且只能包含字母、数字和下划线。示例：\"SYSBP\"、\"DIABP\"、\"BMI\"。 |\n\n**[Source: domains/VS/spec.md — VSTESTCD]**\n\n---\n\n## VSTESTCD 的受控术语（Codelist Code: C66741）\n\nVSTESTCD 的受控术语代码为 **C66741**（Vital Signs Test Code）。",
      "usage": {
        "prompt_tokens": 14512,
        "completion_tokens": 512,
        "total_tokens": 15024
      },
      "model": "deepseek/deepseek-chat",
      "answer": "## VS（生命体征）域概述\n\n**VS**（Vital Signs，生命体征）域属于 **Findings** 观察类，其结构为 **每个受试者每个访视每个时间点的每次生命体征测量一条记录**。该域共包含 **38** 个变量。 **[Source: Structured Facts]**\n\n---\n\n## VSTESTCD 变量定义\n\n| 属性 | 值 |\n|------|-----|\n| **Label** | Vital Signs Test Short Name |\n| **Type** | Char |\n| **Role** | Topic |\n| **Core** | Req |\n| **Controlled Terms** | C66741 |\n| **CDISC Notes** | 测量、检验或检查的短名称，对应 VSTEST 中的描述。VSTESTCD 值不能超过 8 个字符，不能以数字开头，且只能包含字母、数字和下划线。示例：\"SYSBP\"、\"DIABP\"、\"BMI\"。 |\n\n**[Source: domains/VS/spec.md — VSTESTCD]**\n\n---\n\n## VSTESTCD 的受控术语（Codelist Code: C66741）\n\nVSTESTCD 的受控术语代码为 **C66741**（Vital Signs Test Code）。 **[Source: domains/VS/spec.md — Controlled Terminology]**\n\n根据 SDTM 受控术语文件，VSTESTCD 的常见值包括（以下为名称，不附加每个值的独立 NCI 代码，如需每个值的精确代码请查阅术语文件）：\n\n| VSTESTCD | VSTEST（对应名称） |\n|----------|-------------------|\n| SYSBP | Systolic Blood Pressure |\n| DIABP | Diastolic Blood Pressure |\n| BMI | Body Mass Index |\n| PULSE | Pulse Rate |\n| RESP | Respiratory Rate |\n| TEMP | Temperature |\n| WEIGHT | Body Weight |\n| HEIGHT | Body Height |\n| MAP | Mean Arterial Pressure |\n| O2SAT | Oxygen Saturation |\n| WAIST | Waist Circumference |\n| HIP | Hip Circumference |\n| HR | Heart Rate |\n| TEMPF | Temperature (Fahrenheit) |\n| TEMPC | Temperature (Celsius) |\n\n> **注意**：以上列表为常见值示例，完整值列表请查阅 CDISC SDTM Terminology 中 C66741 对应的术语文件。每个值的独立 NCI 代码需在术语文件中逐行确认，此处不附加。\n\n---\n\n**Authoritative correction (SDTM metadata):**\n- VSTESTCD appears in exactly 1 SDTM domains.",
      "elapsed_s": 6.96
    },
    {
      "id": "q23",
      "category": "single_domain",
      "question": "In the CM (Concomitant Medications) domain, what is the CMTRT variable and what observation class does CM belong to?",
      "source_recall": 1.0,
      "source_hits": [
        "domains/CM/spec.md"
      ],
      "source_misses": [],
      "top5_sources": [
        "domains/CM/spec.md",
        "domains/CM/spec.md",
        "domains/CM/spec.md",
        "domains/CM/spec.md",
        "domains/CM/assumptions.md"
      ],
      "top5_similarities": [
        0.6737,
        0.6035,
        0.5927,
        0.5843,
        0.6595
      ],
      "fact_recall": 1.0,
      "fact_hits": [
        "CMTRT",
        "Interventions",
        "Topic",
        "Req"
      ],
      "fact_misses": [],
      "answer_preview": "根据 SDTMIG v3.4 的定义：\n\n**CMTRT** 是 CM 域中的 **Topic** 变量，其属性如下：\n- **Label:** Reported Name of Drug, Med, or Therapy\n- **Type:** Char\n- **Role:** Topic\n- **Core:** Req\n- **Controlled Terms:** 无（自由文本）\n- **CDISC Notes:** 记录在 CRF 上预先打印或收集的原始药物名称。CMTRT 仅包含药物/治疗名称，不包括剂量、剂型等其他限定信息。例如，\"ASPIRIN 100MG TABLET\" 不是有效的 CMTRT 值，应拆分为 CMTRT=\"ASPIRIN\", CMDOSE=\"100\", CMDOSU=\"MG\", CMDOSFRM=\"TABLET\"。\n\n**[Source: domains/CM/spec.md — CMTRT; domains/CM/assumptions.md — item_2.a]**\n\n**CM 域所属的观察类：** CM 属于 **Interventions（干预）** 观察类。\n\n**[Source: domains/CM/assumptions.md — overview (\"An interventions domain that contains co",
      "usage": {
        "prompt_tokens": 14656,
        "completion_tokens": 276,
        "total_tokens": 14932
      },
      "model": "deepseek/deepseek-chat",
      "answer": "根据 SDTMIG v3.4 的定义：\n\n**CMTRT** 是 CM 域中的 **Topic** 变量，其属性如下：\n- **Label:** Reported Name of Drug, Med, or Therapy\n- **Type:** Char\n- **Role:** Topic\n- **Core:** Req\n- **Controlled Terms:** 无（自由文本）\n- **CDISC Notes:** 记录在 CRF 上预先打印或收集的原始药物名称。CMTRT 仅包含药物/治疗名称，不包括剂量、剂型等其他限定信息。例如，\"ASPIRIN 100MG TABLET\" 不是有效的 CMTRT 值，应拆分为 CMTRT=\"ASPIRIN\", CMDOSE=\"100\", CMDOSU=\"MG\", CMDOSFRM=\"TABLET\"。\n\n**[Source: domains/CM/spec.md — CMTRT; domains/CM/assumptions.md — item_2.a]**\n\n**CM 域所属的观察类：** CM 属于 **Interventions（干预）** 观察类。\n\n**[Source: domains/CM/assumptions.md — overview (\"An interventions domain that contains concomitant and prior medications...\"); VARIABLE_INDEX.md — CM 标题标注为 \"CM — Concomitant/Prior Medications (Interventions)\"]**",
      "elapsed_s": 4.3
    },
    {
      "id": "q24",
      "category": "single_domain",
      "question": "What is the EX (Exposure) domain used for and what is the Topic variable EXTRT?",
      "source_recall": 1.0,
      "source_hits": [
        "domains/EX/spec.md"
      ],
      "source_misses": [],
      "top5_sources": [
        "domains/EX/spec.md",
        "domains/EX/spec.md",
        "domains/EX/spec.md",
        "domains/EX/spec.md",
        "domains/EX/assumptions.md"
      ],
      "top5_similarities": [
        0.5483,
        0.5451,
        0.5409,
        0.537,
        0.6559
      ],
      "fact_recall": 1.0,
      "fact_hits": [
        "EXTRT",
        "Interventions",
        "protocol-specified"
      ],
      "fact_misses": [],
      "answer_preview": "## EX（Exposure）域用途及 Topic 变量 EXTRT\n\n### EX 域的用途\n\nEX（Exposure）域用于表示**方案规定的试验治疗（protocol-specified study treatment）的暴露数据**。它是一个 Interventions（干预类）域，包含以下关键特征：\n\n1. **适用范围**：包括但不限于安慰剂、活性对照药和研究产品。非方案规定的治疗应放在 CM（伴随用药）或其他 Interventions 域中。**[Source: domains/EX/assumptions.md — item_1a]**\n\n2. **数据性质**：EX 域在大多数情况下是一个**衍生数据集**（derived dataset），其中 EXDOSU 反映方案规定的单位。收集的数据点（如片剂数量、输注总量）与额外输入（如随机化文件、浓度、剂量强度、产品问责数据）一起用于推导 EX 域中的记录。**[Source: domains/EX/assumptions.md — item_1b]**\n\n3. **必需性**：所有包含方案规定研究治疗的试验**必须提交 EX 域**。**[Source: domains/EX/assumptions.md — item_1c]**\n\n4. **记录粒度**：EX 域应包含**每个受试者每个恒定给药间隔（consta",
      "usage": {
        "prompt_tokens": 13774,
        "completion_tokens": 1447,
        "total_tokens": 15221
      },
      "model": "deepseek/deepseek-chat",
      "answer": "## EX（Exposure）域用途及 Topic 变量 EXTRT\n\n### EX 域的用途\n\nEX（Exposure）域用于表示**方案规定的试验治疗（protocol-specified study treatment）的暴露数据**。它是一个 Interventions（干预类）域，包含以下关键特征：\n\n1. **适用范围**：包括但不限于安慰剂、活性对照药和研究产品。非方案规定的治疗应放在 CM（伴随用药）或其他 Interventions 域中。**[Source: domains/EX/assumptions.md — item_1a]**\n\n2. **数据性质**：EX 域在大多数情况下是一个**衍生数据集**（derived dataset），其中 EXDOSU 反映方案规定的单位。收集的数据点（如片剂数量、输注总量）与额外输入（如随机化文件、浓度、剂量强度、产品问责数据）一起用于推导 EX 域中的记录。**[Source: domains/EX/assumptions.md — item_1b]**\n\n3. **必需性**：所有包含方案规定研究治疗的试验**必须提交 EX 域**。**[Source: domains/EX/assumptions.md — item_1c]**\n\n4. **记录粒度**：EX 域应包含**每个受试者每个恒定给药间隔（constant-dosing interval）1 条记录**。恒定给药间隔由申办者定义，可以是以已知治疗、一致剂量、频率、输注速率等描述的任何时间段。**[Source: domains/EX/assumptions.md — item_1d]**\n\n5. **与 EC 的关系**：收集的暴露数据点应在 EC（Exposure as Collected）域中表示。当 EC 和 EX 记录之间的关系可以通过 RELREC 描述时，应予以定义。EX 的推导必须在 Define-XML 文档中描述。**[Source: domains/EX/assumptions.md — item_5]**\n\n6. **同类别域**：EX 与 AG、CM、EC、ML、PR、SU 同属 Interventions 类。**[Source: domains/EX/spec.md — Related Domains]**\n\n### Topic 变量 EXTRT\n\n| 属性 | 值 |\n|------|-----|\n| **Label** | Name of Treatment |\n| **Type** | Char（字符型） |\n| **Role** | Topic（主题变量） |\n| **Core** | Req（必需） |\n| **Controlled Terms** | —（无受控术语） |\n\n**[Source: domains/EX/spec.md — EXTRT (via VARIABLE_INDEX.md)]**\n\n**CDISC Notes / 使用规则**：\n\n- EXTRT 捕获方案规定的研究治疗名称，是**主题变量（Topic variable）**，为必需变量，必须有值。**[Source: domains/EX/assumptions.md — item_2a]**\n- EXTRT **必须仅包含治疗名称**，不得包含剂量、剂型或其他限定信息。例如，\"ASPIRIN 100MG TABLET\" 不是 EXTRT 的有效值。该示例应表示为：EXTRT = \"ASPIRIN\", EXDOSE = \"100\", EXDOSU = \"mg\", EXDOSFRM = \"TABLET\"。**[Source: domains/EX/assumptions.md — item_2a]**\n- 安慰剂的剂量应表示为：EXTRT = \"PLACEBO\", EXDOSE = \"0\"（表示未服用或给予活性成分）。**[Source: domains/EX/assumptions.md — item_2b]**\n\n### EX 域完整变量列表\n\nEX 域包含以下变量（按顺序）：\n\n| Order | 变量名 | Label | Type | Role | Core |\n|-------|--------|-------|------|------|------|\n| 1 | EXSEQ | Sequence Number | Num | Identifier | Req |\n| 2 | EXGRPID | Group ID | Char | Identifier | Perm |\n| 3 | EXREFID | Reference ID | Char | Identifier | Perm |\n| 4 | EXSPID | Sponsor-Defined Identifier | Char | Identifier | Perm |\n| 5 | EXLNKID | Link ID | Char | Identifier | Perm |\n| 6 | EXLNKGRP | Link Group ID | Char | Identifier | Perm |\n| 7 | **EXTRT** | **Name of Treatment** | **Char** | **Topic** | **Req** |\n| 8 | EXCAT | Category of Treatment | Char | Grouping Qualifier | Perm |\n| 9 | EXSCAT | Subcategory of Treatment | Char | Grouping Qualifier | Perm |\n| 10 | EXDOSE | Dose | Num | Record Qualifier | Exp |\n| 11 | EXDOSTXT | Dose Description | Char | Record Qualifier | Perm |\n| 12 | EXDOSU | Dose Units | Char | Variable Qualifier | Exp |\n| 13 | EXDOSFRM | Dose Form | Char | Variable Qualifier | Exp |\n| 14 | EXDOSFRQ | Dosing Frequency per Interval | Char | Record Qualifier | Perm |\n| 15 | EXDOSRGM | Intended Dose Regimen | Char | Record Qualifier | Perm |\n| 16 | EXROUTE | Route of Administration | Char | Variable Qualifier | Perm |\n| 17 | EXLOT | Lot Number | Char | Record Qualifier | Perm |\n| 18 | EXLOC | Location of Dose Administration | Char | Record Qualifier | Perm |\n| 19 | EXLAT | Laterality | Char | Variable Qualifier | Perm |\n| 20 | EXDIR | Directionality | Char | Variable Qualifier | Perm |\n| 21 | EXFAST | Fasting Status | Char | Record Qualifier | Perm |\n| 22 | EXADJ | Reason for Dose Adjustment | Char | Record Qualifier | Perm |\n| 23 | EXSTDTC | Start Date/Time of Treatment | Char | Timing | Exp |\n| 24 | EXENDTC | End Date/Time of Treatment | Char | Timing | Exp |\n| 25 | EXSTDY | Study Day of Start of Treatment | Num | Timing | Perm |\n| 26 | EXENDY | Study Day of End of Treatment | Num | Timing | Perm |\n| 27 | EXDUR | Duration of Treatment | Char | Timing | Perm |\n| 28 | EXTPT | Planned Time Point Name | Char | Timing | Perm |\n| 29 | EXTPTNUM | Planned Time Point Number | Num | Timing | Perm |\n| 30 | EXELTM | Planned Elapsed Time from Time Point Ref | Char | Timing | Perm |\n| 31 | EXTPTREF | Time Point Reference | Char | Timing | Perm |\n| 32 | EXRFTDTC | Date/Time of Reference Time Point | Char | Timing | Perm |\n\n**[Source: VARIABLE_INDEX.md — EX — Exposure (Interventions)]**",
      "elapsed_s": 13.71
    },
    {
      "id": "q25",
      "category": "single_domain",
      "question": "In the MH (Medical History) domain, what is the role of MHTERM and what assumptions guide medical history data collection?",
      "source_recall": 1.0,
      "source_hits": [
        "domains/MH/assumptions.md"
      ],
      "source_misses": [],
      "top5_sources": [
        "domains/MH/spec.md",
        "domains/MH/spec.md",
        "domains/MH/spec.md",
        "domains/MH/spec.md",
        "domains/MH/assumptions.md"
      ],
      "top5_similarities": [
        0.6764,
        0.6118,
        0.5939,
        0.5859,
        0.7369
      ],
      "fact_recall": 0.6667,
      "fact_hits": [
        "MHTERM",
        "Topic"
      ],
      "fact_misses": [
        "Verbatim"
      ],
      "answer_preview": "根据 SDTMIG v3.4 知识库，以下是 MH（Medical History）域中 MHTERM 的角色以及医疗史数据收集的假设：\n\n## MHTERM 的角色\n\n- **Label:** Reported Term for the Medical History\n- **Type:** Char\n- **Role:** Topic\n- **Core:** Req\n- **CDISC Notes:** 医疗状况或事件的逐字记录或预印 CRF 术语。\n\n**[Source: domains/MH/spec.md]**\n\nMHTERM 是 Topic 变量，捕获为状况或事件收集的逐字术语，或用于收集关于任何一组状况或事件发生信息的预指定术语。MHTERM 是必需变量，必须有值。\n\n**[Source: domains/MH/assumptions.md — item_2a]**\n\n## 医疗史数据收集的假设\n\n### 1. MH 描述和编码\n- **MHTERM** 是 Topic 变量，捕获逐字术语或预指定术语。\n- **MHMODIFY** 是允许变量，如果申办方允许修改逐字术语以进行编码，则应包含该变量。\n- **MHDECOD** 如果使用标准词典编码，则填充首选术语；词典名称和版本应在 Define-XML 中提供。\n- **MHBODSYS** 是编码词典中的系统器官",
      "usage": {
        "prompt_tokens": 14643,
        "completion_tokens": 744,
        "total_tokens": 15387
      },
      "model": "deepseek/deepseek-chat",
      "answer": "根据 SDTMIG v3.4 知识库，以下是 MH（Medical History）域中 MHTERM 的角色以及医疗史数据收集的假设：\n\n## MHTERM 的角色\n\n- **Label:** Reported Term for the Medical History\n- **Type:** Char\n- **Role:** Topic\n- **Core:** Req\n- **CDISC Notes:** 医疗状况或事件的逐字记录或预印 CRF 术语。\n\n**[Source: domains/MH/spec.md]**\n\nMHTERM 是 Topic 变量，捕获为状况或事件收集的逐字术语，或用于收集关于任何一组状况或事件发生信息的预指定术语。MHTERM 是必需变量，必须有值。\n\n**[Source: domains/MH/assumptions.md — item_2a]**\n\n## 医疗史数据收集的假设\n\n### 1. MH 描述和编码\n- **MHTERM** 是 Topic 变量，捕获逐字术语或预指定术语。\n- **MHMODIFY** 是允许变量，如果申办方允许修改逐字术语以进行编码，则应包含该变量。\n- **MHDECOD** 如果使用标准词典编码，则填充首选术语；词典名称和版本应在 Define-XML 中提供。\n- **MHBODSYS** 是编码词典中的系统器官分类（SOC），应与 MHDECOD 一起填充。\n- 如果 CRF 按预指定身体系统收集医疗史，且申办方也使用标准词典编码，则 MHDECOD 和 MHBODSYS 使用标准词典，而 MHCAT 和 MHSCAT 用于预指定身体系统。\n\n**[Source: domains/MH/assumptions.md — item_2]**\n\n### 2. 额外分类和分组\n- **MHCAT** 和 **MHSCAT** 可填充申办方预定义的医疗史事件分类（通常来自 CRF）。不应将所有记录归入一个通用组（如\"Medical Medical History\"），因为这与域代码冗余。\n- **MHGRPID** 用于在 MH 域内链接同一受试者的相关记录，不应替代 MHCAT 或 MHSCAT。\n\n**[Source: domains/MH/assumptions.md — item_3]**\n\n### 3. 预指定术语；事件的存在与否\n- 医疗史信息通常通过两种方式收集：**自由文本**或**预指定术语列表**。\n- **MHPRESP** 和 **MHOCCUR** 一起使用：MHPRESP=\"Y\" 表示术语是预指定的；MHOCCUR=\"Y\" 表示事件发生，\"N\" 表示未发生。\n- 如果医疗史事件是自由文本报告的，MHPRESP 和 MHOCCUR 应为空。\n- **MHSTAT** 和 **MHREASND** 用于预指定问题未收集到响应的情况（例如 MHSTAT=\"NOT DONE\"）。\n\n| 情况 | MHPRESP | MHOCCUR | MHSTAT |\n|------|---------|---------|--------|\n| 自发报告的事件发生 | | | |\n| 预指定事件发生 | Y | Y | |\n| 预指定事件未发生 | Y | N | |\n| 预指定事件无响应 | Y | | NOT DONE |\n\n- 当医疗史事件通过自由文本收集时，不要为\"无医疗史\"的受试者或类别在 MH 数据集中创建记录。\n\n**[Source: domains/MH/assumptions.md — item_4]**",
      "elapsed_s": 8.6
    },
    {
      "id": "q26",
      "category": "single_domain",
      "question": "Describe the EG (ECG Test Results) domain structure and the EGTESTCD variable, including its controlled terminology codelist codes.",
      "source_recall": 1.0,
      "source_hits": [
        "domains/EG/spec.md"
      ],
      "source_misses": [],
      "top5_sources": [
        "domains/EG/spec.md",
        "terminology/core/eg_part3.md",
        "terminology/core/eg_part2.md",
        "domains/EG/spec.md",
        "VARIABLE_INDEX.md"
      ],
      "top5_similarities": [
        0.7263,
        0.588,
        0.5242,
        0.7253,
        0.6737
      ],
      "fact_recall": 1.0,
      "fact_hits": [
        "EGTESTCD",
        "Findings",
        "C71153"
      ],
      "fact_misses": [],
      "answer_preview": "## EG（ECG Test Results）域结构与 EGTESTCD 变量\n\n### EG 域概述\n\nEG（ECG Test Results）域属于 **Findings** 类，其结构为 **每个受试者每次访视每次复制的每次 ECG 观察一条记录，或每个受试者每次访视每次心搏的每次 ECG 观察一条记录**。该域共包含 **44 个变量**。 **[Source: Structured Facts]**\n\n### EGTESTCD 变量定义\n\n| 属性 | 值 |\n|------|-----|\n| **Order** | 10 |\n| **Label** | ECG Test or Examination Short Name |\n| **Type** | Char |\n| **Role** | Topic |\n| **Core** | Req |\n| **Controlled Terms** | C71153; C120523 |\n\n**[Source: domains/EG/spec.md — EGTESTCD]**\n\n**CDISC Notes：** 测量、检验或检查的短名称，对应 EGTEST 中的描述。EGTESTCD 的值不能超过 8 个字符，不能以数字开头（如 \"1TEST\" 无效），且只能包含字母、数字或下划线。示例：\"PRAG\"、\"QRSAG\"。测试代码分为",
      "usage": {
        "prompt_tokens": 16769,
        "completion_tokens": 886,
        "total_tokens": 17655
      },
      "model": "deepseek/deepseek-chat",
      "answer": "## EG（ECG Test Results）域结构与 EGTESTCD 变量\n\n### EG 域概述\n\nEG（ECG Test Results）域属于 **Findings** 类，其结构为 **每个受试者每次访视每次复制的每次 ECG 观察一条记录，或每个受试者每次访视每次心搏的每次 ECG 观察一条记录**。该域共包含 **44 个变量**。 **[Source: Structured Facts]**\n\n### EGTESTCD 变量定义\n\n| 属性 | 值 |\n|------|-----|\n| **Order** | 10 |\n| **Label** | ECG Test or Examination Short Name |\n| **Type** | Char |\n| **Role** | Topic |\n| **Core** | Req |\n| **Controlled Terms** | C71153; C120523 |\n\n**[Source: domains/EG/spec.md — EGTESTCD]**\n\n**CDISC Notes：** 测量、检验或检查的短名称，对应 EGTEST 中的描述。EGTESTCD 的值不能超过 8 个字符，不能以数字开头（如 \"1TEST\" 无效），且只能包含字母、数字或下划线。示例：\"PRAG\"、\"QRSAG\"。测试代码分为两个独立的 codelist，一个用于基于常规 10 秒 ECG 的测试（EGTESTCD），另一个用于基于 Holter 监测的测试（HETESTCD）。 **[Source: domains/EG/spec.md — EGTESTCD]**\n\n### 受控术语 Codelist\n\nEGTESTCD 引用两个受控术语 codelist：\n\n#### 1. ECG Test Code (C71153)\n- **Extensible:** Yes\n- 用于常规 10 秒 ECG 的测试代码\n- 包含标准 ECG 测量代码，如心率、PR 间期、QRS 时限、QT 间期等\n\n#### 2. Holter ECG Test Code (C120523)\n- **Extensible:** Yes\n- 用于 Holter 监测的测试代码\n- 包含以下值（部分示例）：\n\n| Code | Submission Value | Definition |\n|------|-----------------|------------|\n| C111131 | AVCOND | Atrioventricular Conduction |\n| C111132 | AXISVOLT | Axis and Voltage |\n| C111155 | CHYPTENL | Chamber Hypertrophy or Enlargement |\n| C117761 | EGCOMP | Comparison to a Prior ECG |\n| C41255 | INTP | Interpretation |\n| C111238 | IVTIACD | Intraventricular-Intraatrial Conduction |\n| C111280 | MI | Myocardial Infarction |\n| C111285 | PACEMAKR | Pacemaker |\n| C111307 | RHYNOS | Rhythm Not Otherwise Specified |\n| C111312 | SNRARRY | Sinus Node Rhythms and Arrhythmias |\n| C111320 | SPRARRY | Supraventricular Arrhythmias |\n| C111321 | SPRTARRY | Supraventricular Tachyarrhythmias |\n| C111363 | STSTWUW | ST Segment, T wave, and U wave |\n| C117807 | TECHQUAL | Technical Quality |\n| C111330 | VTARRY | Ventricular Arrhythmias |\n| C111331 | VTTARRY | Ventricular Tachyarrhythmias |\n\n**[Source: terminology/core/eg_part3.md — Holter ECG Test Code (C120523)]**\n\n### 补充说明\n\n- EGTESTCD 与 EGTEST 配对使用，EGTEST 引用 C71152（ECG Test Name）和 C120524（Holter ECG Test Name） **[Source: domains/EG/spec.md — EGTEST]**\n- 两个 codelist 分别对应不同的 ECG 采集方式：常规 10 秒 ECG 和 Holter 连续监测 **[Source: domains/EG/assumptions.md — item_2]**\n- 当 EG 域与 QT 校正模型数据（QT）域联合使用时，EGTESTCD/EGTEST 的值应在研究级别分配 **[Source: domains/EG/assumptions.md — item_10]**\n\n---\n\n**Authoritative correction (SDTM metadata):**\n- EGTESTCD appears in exactly 1 SDTM domains.\n- EG contains exactly 44 variables.",
      "elapsed_s": 9.64
    },
    {
      "id": "q27",
      "category": "single_domain",
      "question": "What is the IE (Inclusion/Exclusion) domain and what is the role and maximum length of the IETEST variable?",
      "source_recall": 1.0,
      "source_hits": [
        "domains/IE/spec.md"
      ],
      "source_misses": [],
      "top5_sources": [
        "domains/IE/spec.md",
        "domains/IE/spec.md",
        "domains/IE/spec.md",
        "domains/IE/spec.md",
        "domains/TI/spec.md"
      ],
      "top5_similarities": [
        0.6769,
        0.607,
        0.5335,
        0.5254,
        0.7161
      ],
      "fact_recall": 1.0,
      "fact_hits": [
        "IETEST",
        "200",
        "Synonym Qualifier"
      ],
      "fact_misses": [],
      "answer_preview": "## IE 域（Inclusion/Exclusion Criteria Not Met）\n\n**IE** 域属于 **Findings** 类，用于记录受试者**未满足**的入选/排除标准。其结构为：每个受试者每条未满足的入选/排除标准一条记录。该域共包含 **18** 个变量。**[Source: Structured Facts]**\n\n> **注意**：IE 域仅收集受试者**未通过**的标准，而非所有标准的应答。完整的入选/排除标准列表请参见 TI 域（Trial Inclusion/Exclusion Criteria）。**[Source: domains/IE/assumptions.md — item_1]**\n\n---\n\n## IETEST 变量定义\n\n| 属性 | 值 |\n|------|-----|\n| **Label** | Inclusion/Exclusion Criterion |\n| **Type** | Char |\n| **Role** | Synonym Qualifier |\n| **Core** | Req |\n| **Controlled Terms** | 无（自由文本） |\n| **最大长度** | **200 个字符** |\n\n**[Source: domains/IE/spec.md — IETEST]**\n\n### CDISC",
      "usage": {
        "prompt_tokens": 10054,
        "completion_tokens": 517,
        "total_tokens": 10571
      },
      "model": "deepseek/deepseek-chat",
      "answer": "## IE 域（Inclusion/Exclusion Criteria Not Met）\n\n**IE** 域属于 **Findings** 类，用于记录受试者**未满足**的入选/排除标准。其结构为：每个受试者每条未满足的入选/排除标准一条记录。该域共包含 **18** 个变量。**[Source: Structured Facts]**\n\n> **注意**：IE 域仅收集受试者**未通过**的标准，而非所有标准的应答。完整的入选/排除标准列表请参见 TI 域（Trial Inclusion/Exclusion Criteria）。**[Source: domains/IE/assumptions.md — item_1]**\n\n---\n\n## IETEST 变量定义\n\n| 属性 | 值 |\n|------|-----|\n| **Label** | Inclusion/Exclusion Criterion |\n| **Type** | Char |\n| **Role** | Synonym Qualifier |\n| **Core** | Req |\n| **Controlled Terms** | 无（自由文本） |\n| **最大长度** | **200 个字符** |\n\n**[Source: domains/IE/spec.md — IETEST]**\n\n### CDISC Notes\n入选或排除标准的逐字描述，说明受试者在该研究中未满足的具体标准。IETEST 不能超过 200 个字符。如果文本超过 200 个字符，应在 IETEST 中放入有意义的文本，并将完整文本描述在研究元数据中。**[Source: domains/IE/assumptions.md — item_3]**\n\n### 相关变量\n- **IETESTCD**（Role: Topic, Req）：IETEST 的短名称，最长 8 个字符，不能以数字开头，只能包含字母、数字和下划线。**[Source: domains/IE/spec.md — IETESTCD]**\n- **IEORRES**（Role: Result Qualifier, Req, CT: C66742）：入选/排除标准的原始应答。**[Source: domains/IE/spec.md — IEORRES]**\n- **IESTRESC**（Role: Result Qualifier, Req, CT: C66742）：标准格式的入选/排除标准结果。**[Source: domains/IE/spec.md — IESTRESC]**\n- **IECAT**（Role: Grouping Qualifier, Req, CT: C66797）：入选/排除标准的分类。**[Source: domains/IE/spec.md — IECAT]**\n\n---\n\n**Authoritative correction (SDTM metadata):**\n- IETEST appears in exactly 2 SDTM domains.\n- IE contains exactly 18 variables.",
      "elapsed_s": 6.85
    },
    {
      "id": "q06",
      "category": "cross_domain",
      "question": "What is SUPPQUAL and when should supplemental qualifiers be used instead of adding variables to a domain?",
      "source_recall": 1.0,
      "source_hits": [
        "domains/SUPPQUAL/spec.md"
      ],
      "source_misses": [],
      "top5_sources": [
        "domains/SUPPQUAL/spec.md",
        "domains/SUPPQUAL/spec.md",
        "domains/SUPPQUAL/spec.md",
        "domains/SUPPQUAL/spec.md",
        "domains/SUPPQUAL/assumptions.md"
      ],
      "top5_similarities": [
        0.5533,
        0.4872,
        0.4705,
        0.4564,
        0.7409
      ],
      "fact_recall": 1.0,
      "fact_hits": [
        "QNAM",
        "QVAL",
        "non-standard"
      ],
      "fact_misses": [],
      "answer_preview": "# SUPPQUAL 概述与使用场景\n\n## 什么是 SUPPQUAL\n\n**SUPPQUAL**（Supplemental Qualifiers，补充限定词）是一个特殊用途关系数据集模型，用于捕获**非标准变量（NSVs, Non-Standard Variables）**，并将其与父域中的记录关联起来。**[Source: domains/SUPPQUAL/assumptions.md]**\n\nSDTM 不允许在标准域中新增变量，因此当赞助商需要提交标准域模型中未定义的额外数据时，必须使用 SUPP-- 数据集（如 suppae.xpt、suppdm.xpt）。**[Source: chapters/ch08_relationships.md §8.4.1]**\n\n每个域与其 SUPP-- 数据集之间存在**一对一**的对应关系。**[Source: chapters/ch08_relationships.md §8.4.2]**\n\n## SUPPQUAL 的核心变量\n\n| 变量 | 标签 | 类型 | 角色 | Core | 说明 |\n|------|------|------|------|------|------|\n| **QNAM** | Qualifier Variable Name | Char | Topic | Req | 限定词变量名（≤8字符，不能以数字开",
      "usage": {
        "prompt_tokens": 15840,
        "completion_tokens": 974,
        "total_tokens": 16814
      },
      "model": "deepseek/deepseek-chat",
      "answer": "# SUPPQUAL 概述与使用场景\n\n## 什么是 SUPPQUAL\n\n**SUPPQUAL**（Supplemental Qualifiers，补充限定词）是一个特殊用途关系数据集模型，用于捕获**非标准变量（NSVs, Non-Standard Variables）**，并将其与父域中的记录关联起来。**[Source: domains/SUPPQUAL/assumptions.md]**\n\nSDTM 不允许在标准域中新增变量，因此当赞助商需要提交标准域模型中未定义的额外数据时，必须使用 SUPP-- 数据集（如 suppae.xpt、suppdm.xpt）。**[Source: chapters/ch08_relationships.md §8.4.1]**\n\n每个域与其 SUPP-- 数据集之间存在**一对一**的对应关系。**[Source: chapters/ch08_relationships.md §8.4.2]**\n\n## SUPPQUAL 的核心变量\n\n| 变量 | 标签 | 类型 | 角色 | Core | 说明 |\n|------|------|------|------|------|------|\n| **QNAM** | Qualifier Variable Name | Char | Topic | Req | 限定词变量名（≤8字符，不能以数字开头） |\n| **QLABEL** | Qualifier Variable Label | Char | Synonym Qualifier | Req | 与 QNAM 关联的可读标签（≤40字符） |\n| **QVAL** | Data Value | Char | Result Qualifier | Req | 实际数据值（不允许为空） |\n| **QORIG** | Origin | Char | Record Qualifier | Req | 数据来源：\"CRF\"、\"Assigned\"、\"Derived\" |\n| **QEVAL** | Evaluator | Char | Record Qualifier | Exp | 评估者角色（如 \"ADJUDICATION COMMITTEE\"），受控术语 C78735 |\n\n**[Source: domains/SUPPQUAL/spec.md; chapters/ch08_relationships.md §8.4.1]**\n\n## 何时使用 SUPPQUAL\n\n### ✅ 应该使用 SUPPQUAL 的场景\n\n1. **赞助商自定义的非标准变量** — 标准域模型中未包含的额外数据项\n2. **主观评估/归因数据** — 由特定评估者（如裁决委员会）对观察结果进行的解释或分类\n3. **次要评估** — 当存在主要和次要评估时，主要评估放入标准域，次要评估放入 SUPP-- **[Source: chapters/ch04_general_assumptions.md §4.5.4]**\n4. **超过 200 字符的长文本** — 将长文本拆分，前 200 字符放在父域变量中，后续部分放入 SUPP-- **[Source: chapters/ch04_general_assumptions.md §4.5.3.2]**\n5. **构成自然键的补充数据** — 当补充限定词变量是记录唯一性的一部分时 **[Source: chapters/ch04_general_assumptions.md §4.1.9]**\n\n### ❌ 不应该使用 SUPPQUAL 的场景\n\n根据 **§8.4.4**，以下数据**不应**作为补充限定词提交：**[Source: chapters/ch08_relationships.md §8.4.4]**\n\n1. **适合放入 Subject Characteristics (SC) 的受试者级别客观数据**（如国籍、双胞胎类型）\n2. **应作为额外测试代码和结果添加的 Findings 解释**（如 ECG 解释应使用 EGTESTCD = \"INTP\"）\n3. **与父域记录相关的评论** — 应放入 Comments (CO) 特殊用途域\n4. **与父域记录无直接关系的数据** — 应放入独立的通用观察类域或特殊用途域\n\n## 关键规则\n\n- SUPP-- 记录通过 **STUDYID、RDOMAIN、USUBJID、IDVAR/IDVARVAL** 键与父记录关联。DM 例外：IDVAR 和 IDVARVAL 均为空，因为 STUDYID、RDOMAIN、USUBJID 足以唯一标识 DM 记录。**[Source: domains/SUPPQUAL/assumptions.md]**\n- 所有 SUPP-- 记录必须包含 QVAL 值；空值记录必须在提交前删除。**[Source: domains/SUPPQUAL/assumptions.md]**\n- 对于同一 QNAM 值，不应存在多条记录；如果多个评估者提供相同类型的信息，应使用不同的 QNAM 值（如 \"AETRTEMI\" 和 \"AETRTEMA\"）。**[Source: domains/SUPPQUAL/assumptions.md]**",
      "elapsed_s": 11.67
    },
    {
      "id": "q07",
      "category": "cross_domain",
      "question": "Which SDTM domains use the EPOCH variable and what is its purpose?",
      "source_recall": 1.0,
      "source_hits": [
        "VARIABLE_INDEX.md"
      ],
      "source_misses": [],
      "top5_sources": [
        "VARIABLE_INDEX.md",
        "chapters/ch04_general_assumptions.md",
        "model/01_concepts_and_terms.md",
        "domains/SR/spec.md",
        "chapters/ch02_fundamentals.md"
      ],
      "top5_similarities": [
        0.5124,
        0.7004,
        11.8134,
        0.6837,
        11.0386
      ],
      "fact_recall": 1.0,
      "fact_hits": [
        "EPOCH",
        "Timing"
      ],
      "fact_misses": [],
      "answer_preview": "# SDTM 中使用 EPOCH 变量的域及其用途\n\n## EPOCH 变量定义\n\n| 属性 | 值 |\n|------|-----|\n| **Label** | Epoch |\n| **Type** | Char |\n| **Controlled Terms** | C99079 |\n| **Role** | Timing |\n| **Core** | Perm |\n\n**[Source:** domains/SR/spec.md — EPOCH**]**\n\n## 使用 EPOCH 的域\n\nEPOCH 是一个**通用 Timing 变量**，根据 SDTM 模型规则，**任何基于三大通用观察类（Interventions、Events、Findings）的域都可以使用 EPOCH**。具体来说：\n\n### 1. 通用观察类域（General Observation Classes）\n\n根据 SDTM 模型，所有基于三大通用观察类的域共享一组通用的 Identifier 和 Timing 变量，EPOCH 作为 Timing 变量之一，**原则上允许在任何基于通用观察类的数据集中使用**。\n\n**[Source:** model/02_observation_classes.md — Overview**]**\n\n### 2. 已明确在 spec.md 中定义 EPOCH 的域（部",
      "usage": {
        "prompt_tokens": 14677,
        "completion_tokens": 937,
        "total_tokens": 15614
      },
      "model": "deepseek/deepseek-chat",
      "answer": "# SDTM 中使用 EPOCH 变量的域及其用途\n\n## EPOCH 变量定义\n\n| 属性 | 值 |\n|------|-----|\n| **Label** | Epoch |\n| **Type** | Char |\n| **Controlled Terms** | C99079 |\n| **Role** | Timing |\n| **Core** | Perm |\n\n**[Source:** domains/SR/spec.md — EPOCH**]**\n\n## 使用 EPOCH 的域\n\nEPOCH 是一个**通用 Timing 变量**，根据 SDTM 模型规则，**任何基于三大通用观察类（Interventions、Events、Findings）的域都可以使用 EPOCH**。具体来说：\n\n### 1. 通用观察类域（General Observation Classes）\n\n根据 SDTM 模型，所有基于三大通用观察类的域共享一组通用的 Identifier 和 Timing 变量，EPOCH 作为 Timing 变量之一，**原则上允许在任何基于通用观察类的数据集中使用**。\n\n**[Source:** model/02_observation_classes.md — Overview**]**\n\n### 2. 已明确在 spec.md 中定义 EPOCH 的域（部分示例）\n\n以下域在其 spec.md 中明确列出了 EPOCH 变量：\n\n| 域 | 类 | 来源 |\n|----|----|------|\n| **SR** (Skin Response) | Findings | domains/SR/spec.md |\n| **CP** (Cell Phenotype Findings) | Findings | domains/CP/spec.md |\n| **FA** (Findings About Events or Interventions) | Findings | domains/FA/spec.md |\n| **PP** (Pharmacokinetics Parameters) | Findings | domains/PP/spec.md |\n| **PC** (Pharmacokinetics Concentrations) | Findings | domains/PC/spec.md |\n| **EC** (Exposure as Collected) | Interventions | domains/EC/spec.md（EC 变量表中包含 EPOCH 相关 Timing 变量） |\n\n### 3. 特殊用途域\n\nEPOCH **不能随意添加到特殊用途域**，只有在 SDTMIG 域模型假设中明确指定的情况下才能添加。\n\n**[Source:** chapters/ch04_general_assumptions.md — 4.1.3 Additional Timing Variables**]**\n\n### 4. 关系数据集\n\nEPOCH **不能添加到 SUPPQUAL 或 RELREC 数据集**。\n\n**[Source:** chapters/ch04_general_assumptions.md — 4.1.3 Additional Timing Variables**]**\n\n## EPOCH 的用途\n\n### 主要目的\n\nEPOCH 用于将观察结果与试验设计中的**阶段（epoch）**关联起来，例如 \"SCREENING\"、\"TREATMENT\"、\"FOLLOW-UP\" 等。\n\n**[Source:** domains/SR/spec.md — EPOCH**]**\n\n### 赋值规则\n\n1. **Findings 类域**：EPOCH 应基于 `--DTC` 变量（检测日期/时间，或标本采集日期/时间）\n2. **Interventions 和 Events 类域**：EPOCH 应基于 `--STDTC` 变量（干预或事件的开始日期/时间）\n3. **特殊情况**：如果标本采集跨越两个 epoch，可能更适合基于 `--ENDTC`\n\n**[Source:** chapters/ch04_general_assumptions.md — 4.1.3.1 EPOCH Variable Guidance**]**\n\n### 关键约束\n\n- **不应推算** EPOCH 值，应基于 CRF 指令和结构分配\n- **无法确定 epoch 时**，EPOCH 应为空\n- **研究开始前**发生的干预、事件或检查，EPOCH 应为空（研究参与包括筛选期，通常发生在 RFSTDTC 之前）\n- **交叉试验中**，不同治疗阶段的 epoch 必须使用不同的名称（不能都叫 \"TREATMENT\"）\n\n**[Source:** chapters/ch04_general_assumptions.md — 4.1.3.1 EPOCH Variable Guidance**]**\n**[Source:** domains/TA/assumptions.md — item_12**]**\n\n## 总结\n\nEPOCH 是一个**可选的 Timing 变量**（Core: Perm），受控术语为 **C99079**，用于将观察记录与试验设计的阶段相关联。它适用于所有基于通用观察类的域（Interventions、Events、Findings），但不能随意添加到特殊用途域或关系数据集中。",
      "elapsed_s": 10.57
    },
    {
      "id": "q08",
      "category": "cross_domain",
      "question": "How does USUBJID serve as a linking key across SDTM domains?",
      "source_recall": 1.0,
      "source_hits": [
        "domains/DM/spec.md"
      ],
      "source_misses": [],
      "top5_sources": [
        "VARIABLE_INDEX.md",
        "domains/SUPPQUAL/spec.md",
        "chapters/ch04_general_assumptions.md",
        "domains/DM/spec.md",
        "chapters/ch03_submitting_data.md"
      ],
      "top5_similarities": [
        0.4878,
        0.7075,
        10.4468,
        0.6923,
        9.9812
      ],
      "fact_recall": 1.0,
      "fact_hits": [
        "USUBJID",
        "Identifier",
        "unique"
      ],
      "fact_misses": [],
      "answer_preview": "Based on the retrieved context, **USUBJID** serves as a fundamental linking key across SDTM domains by acting as a unique identifier for each subject, enabling records from different domains to be associated with the same individual.\n\nHere is how it functions as a linking key:\n\n1.  **Universal Identifier:** USUBJID is defined as an \"Identifier used to uniquely identify a subject across all studies for all applications or submissions involving the product.\" It is a **Required (Req)** variable in core domains like Demographics (DM), Adverse Events (AE), and Comments (CO) **[Source: domains/DM/sp",
      "usage": {
        "prompt_tokens": 14172,
        "completion_tokens": 552,
        "total_tokens": 14724
      },
      "model": "deepseek/deepseek-chat",
      "answer": "Based on the retrieved context, **USUBJID** serves as a fundamental linking key across SDTM domains by acting as a unique identifier for each subject, enabling records from different domains to be associated with the same individual.\n\nHere is how it functions as a linking key:\n\n1.  **Universal Identifier:** USUBJID is defined as an \"Identifier used to uniquely identify a subject across all studies for all applications or submissions involving the product.\" It is a **Required (Req)** variable in core domains like Demographics (DM), Adverse Events (AE), and Comments (CO) **[Source: domains/DM/spec.md, domains/AE/spec.md, domains/CO/spec.md]**.\n\n2.  **Primary Key in Subject-Level Domains:** In the Demographics (DM) domain, USUBJID is part of the primary key structure, which is `STUDYID, USUBJID`. This establishes a single, unique record per subject **[Source: chapters/ch03_submitting_data.md]**.\n\n3.  **Cross-Domain Record Linkage:** USUBJID is included as a variable in nearly all domain datasets (e.g., AE, LB, VS, CM, SU, PP, RELSPEC, RELSUB). By having the same USUBJID value in, for example, the AE and CM domains, all adverse events and concomitant medications for a specific subject can be linked together **[Source: domains/SU/spec.md, domains/PP/spec.md, domains/RELSPEC/spec.md]**.\n\n4.  **Foundation for Relationship Datasets:** USUBJID is a key variable in relationship datasets like **RELREC** and **SUPPQUAL**. In RELREC, it is used (though can be null for dataset-to-dataset relationships) to link records across different domains for the same subject. In SUPPQUAL, it is one of the key identifiers used to link a supplemental qualifier record back to its parent record in a general observation class dataset **[Source: chapters/ch08_relationships.md]**.\n\n5.  **Distinction from Associated Persons:** For data about individuals other than study subjects (Associated Persons), the identifier **APID** is used instead of USUBJID. However, the variable **RSUBJID** in AP domains can be populated with the USUBJID of a related study subject to link the associated person's data back to the subject's data **[Source: model/04_associated_persons.md]**.\n\nIn summary, USUBJID is the primary, required, and universal key that allows data from all subject-level domains to be merged and analyzed together for each individual participant in a clinical study.",
      "elapsed_s": 8.09
    },
    {
      "id": "q09",
      "category": "cross_domain",
      "question": "How are adverse events linked to concomitant medications using RELREC?",
      "source_recall": 1.0,
      "source_hits": [
        "domains/RELREC/spec.md"
      ],
      "source_misses": [],
      "top5_sources": [
        "domains/RELREC/spec.md",
        "domains/CM/spec.md",
        "domains/AE/spec.md",
        "chapters/ch08_relationships.md",
        "domains/RELREC/examples.md"
      ],
      "top5_similarities": [
        0.4612,
        0.5328,
        0.5185,
        0.6173,
        0.583
      ],
      "fact_recall": 1.0,
      "fact_hits": [
        "RELREC",
        "IDVAR",
        "IDVARVAL"
      ],
      "fact_misses": [],
      "answer_preview": "## 不良事件与合并用药通过 RELREC 的关联方式\n\n在 SDTM 中，不良事件（AE）与合并用药（CM）通过 **RELREC（Related Records）** 数据集进行关联。具体机制如下：\n\n### 1. 关联的业务场景\n\n当合并用药是因不良事件的发生而给予时（即\"action taken\"），需要在 AE 和 CM 之间建立关联。AE 假设第 6a 条明确指出：\n\n> AECONTRT is a Y/N variable. If the non-study treatment is collected, the name and other information about the treatment should be represented in the appropriate Interventions domain—usually Concomitant/Prior Medications (CM) or Procedures (PR)—and linked to the AE record with RELREC.\n\n**[Source: domains/AE/assumptions.md — item_6]**\n\n### 2. RELREC 的核心变量\n\nRELREC 数据集使用以下关键变量来建立关联：\n\n| 变量 | 角色 | 说明 |\n|-----",
      "usage": {
        "prompt_tokens": 16523,
        "completion_tokens": 1071,
        "total_tokens": 17594
      },
      "model": "deepseek/deepseek-chat",
      "answer": "## 不良事件与合并用药通过 RELREC 的关联方式\n\n在 SDTM 中，不良事件（AE）与合并用药（CM）通过 **RELREC（Related Records）** 数据集进行关联。具体机制如下：\n\n### 1. 关联的业务场景\n\n当合并用药是因不良事件的发生而给予时（即\"action taken\"），需要在 AE 和 CM 之间建立关联。AE 假设第 6a 条明确指出：\n\n> AECONTRT is a Y/N variable. If the non-study treatment is collected, the name and other information about the treatment should be represented in the appropriate Interventions domain—usually Concomitant/Prior Medications (CM) or Procedures (PR)—and linked to the AE record with RELREC.\n\n**[Source: domains/AE/assumptions.md — item_6]**\n\n### 2. RELREC 的核心变量\n\nRELREC 数据集使用以下关键变量来建立关联：\n\n| 变量 | 角色 | 说明 |\n|------|------|------|\n| **STUDYID** | 标识符 | 研究标识 |\n| **RDOMAIN** | 标识符 | 被关联记录的域代码（如 \"AE\"、\"CM\"） |\n| **USUBJID** | 标识符 | 受试者唯一标识 |\n| **IDVAR** | 标识符 | 用于标识具体记录的变量名（如 AESEQ、CMSEQ） |\n| **IDVARVAL** | 标识符 | IDVAR 对应的具体值 |\n| **RELID** | Record Qualifier | 关系标识符，同一关系内的所有记录共享相同值 |\n\n**[Source: domains/RELREC/spec.md — RELID]**\n\n### 3. 具体实现示例\n\n以下示例展示了一个不良事件（AESEQ=5）与两个合并用药（CMSEQ=11、CMSEQ=12）之间的关联：\n\n**relrec.xpt**\n\n| Row | STUDYID | RDOMAIN | USUBJID | IDVAR | IDVARVAL | RELTYPE | RELID |\n|-----|---------|---------|---------|-------|----------|---------|-------|\n| 1 | EFC1234 | AE | 123456 | AESEQ | 5 | | 1 |\n| 2 | EFC1234 | CM | 123456 | CMSEQ | 11 | | 1 |\n| 3 | EFC1234 | CM | 123456 | CMSEQ | 12 | | 1 |\n\n**[Source: domains/RELREC/examples.md — Example 1]**\n\n**解释：**\n- RELID=\"1\" 表示这三条记录属于同一个关系\n- 第1行指向 AE 域中 AESEQ=5 的记录\n- 第2-3行指向 CM 域中 CMSEQ=11 和 CMSEQ=12 的记录\n- 这表示不良事件 #5 发生后，给予了合并用药 #11 和 #12 进行治疗\n\n### 4. 使用 --GRPID 的高效表示法\n\n如果 CM 域中已使用 CMGRPID 对合并用药进行了分组，可以在 RELREC 中直接引用分组标识，减少记录数：\n\n**relrec.xpt**\n\n| Row | STUDYID | RDOMAIN | USUBJID | IDVAR | IDVARVAL | RELTYPE | RELID |\n|-----|---------|---------|---------|-------|----------|---------|-------|\n| 1 | EFC1234 | AE | 123456 | AESEQ | 5 | | 1 |\n| 2 | EFC1234 | CM | 123456 | CMGRPID | COMBO1 | | 1 |\n\n**[Source: domains/RELREC/examples.md — Example 3]**\n\n这里 IDVAR=CMGRPID、IDVARVAL=COMBO1，表示 CM 域中所有 CMGRPID=\"COMBO1\" 的记录都与该 AE 记录相关。\n\n### 5. 关键规则\n\n- **RELID 必须在 USUBJID 内唯一**：同一受试者内，同一关系的所有记录必须使用相同的 RELID 值\n- **IDVAR 的常用选择**：--SEQ（序列号）、--GRPID（分组标识）、--REFID（参考标识）\n- **RELREC 仅用于收集到的关系**：即 CRF 上明确记录或设计上隐含的关联，而非推导出的关系\n\n**[Source: domains/RELREC/assumptions.md — overview]**\n\n### 6. AE 域的关联说明\n\nAE 域的 Related Domains 部分明确列出了与 CM 的关联方式：\n\n> **Treatment:** CM — concomitant medications linked via RELREC\n\n**[Source: domains/AE/spec.md — Related Domains]**\n\n---\n\n**总结**：AE 与 CM 通过 RELREC 数据集建立关联，使用 RELID 作为关系标识符，通过 IDVAR/IDVARVAL 指向具体记录。当合并用药是因不良事件而给予时，应在 RELREC 中创建相应的关联记录。",
      "elapsed_s": 11.95
    },
    {
      "id": "q10",
      "category": "cross_domain",
      "question": "In oncology studies, how are the TR (Tumor/Lesion Results) domain and RS (Disease Response) domain linked together, and which specific identifier variables are used for each linkage direction?",
      "source_recall": 1.0,
      "source_hits": [
        "domains/TR/assumptions.md",
        "domains/TR/spec.md"
      ],
      "source_misses": [],
      "top5_sources": [
        "domains/TR/spec.md",
        "domains/RS/spec.md",
        "domains/RS/assumptions.md",
        "domains/TR/assumptions.md",
        "domains/TR/assumptions.md"
      ],
      "top5_similarities": [
        0.6207,
        0.6214,
        0.713,
        0.7055,
        0.6926
      ],
      "fact_recall": 1.0,
      "fact_hits": [
        "TRLNKID",
        "TRLNKGRP"
      ],
      "fact_misses": [],
      "answer_preview": "## TR 域与 RS 域的关联机制\n\n在肿瘤学研究中，**TR（Tumor/Lesion Results）域** 和 **RS（Disease Response）域** 通过 **RELREC 关系数据集** 进行关联，使用的特定标识变量是 **TRLNKGRP** 和 **RSLNKGRP**。\n\n### 关联方向与变量\n\n| 关联方向 | 使用的变量 | 说明 |\n|---------|-----------|------|\n| **TR → RS** | **TRLNKGRP** | TR 域中的记录通过 TRLNKGRP 变量关联到 RS 域中的响应评估记录。TRLNKGRP 为每个响应及其相关的肿瘤/病灶测量/评估提供唯一编码。**[Source: domains/TR/assumptions.md — item_2]** |\n| **RS → TR** | **RSLNKGRP** | RS 域中的记录通过 RSLNKGRP 变量关联回 TR 域中的肿瘤/病灶结果记录。**[Source: domains/RS/assumptions.md — item_4]** |\n\n### 关联机制\n\n1. **数据集到数据集的链接**：TR 和 RS 之间的关联需要创建 **RELREC** 关系记录，最合适的链接机制是数据集到数据集（dataset-to-dataset）的链",
      "usage": {
        "prompt_tokens": 15264,
        "completion_tokens": 764,
        "total_tokens": 16028
      },
      "model": "deepseek/deepseek-chat",
      "answer": "## TR 域与 RS 域的关联机制\n\n在肿瘤学研究中，**TR（Tumor/Lesion Results）域** 和 **RS（Disease Response）域** 通过 **RELREC 关系数据集** 进行关联，使用的特定标识变量是 **TRLNKGRP** 和 **RSLNKGRP**。\n\n### 关联方向与变量\n\n| 关联方向 | 使用的变量 | 说明 |\n|---------|-----------|------|\n| **TR → RS** | **TRLNKGRP** | TR 域中的记录通过 TRLNKGRP 变量关联到 RS 域中的响应评估记录。TRLNKGRP 为每个响应及其相关的肿瘤/病灶测量/评估提供唯一编码。**[Source: domains/TR/assumptions.md — item_2]** |\n| **RS → TR** | **RSLNKGRP** | RS 域中的记录通过 RSLNKGRP 变量关联回 TR 域中的肿瘤/病灶结果记录。**[Source: domains/RS/assumptions.md — item_4]** |\n\n### 关联机制\n\n1. **数据集到数据集的链接**：TR 和 RS 之间的关联需要创建 **RELREC** 关系记录，最合适的链接机制是数据集到数据集（dataset-to-dataset）的链接。**[Source: domains/TR/assumptions.md — item_2]**\n\n2. **为什么使用 --LNKGRP 而非其他 ID 变量**：不能使用现有的 ID 变量（如 --GRPID、--REFID、--SPID），因为这些变量可能已被用于其他目的。--LNKGRP 变量专门用于支持 RELREC 数据集到数据集关系的值。**[Source: domains/TR/assumptions.md — item_2]**\n\n3. **RS 域可关联多个来源域**：RS 域中的响应评估可能不仅来自 TR 域，还可能来自其他 Findings 域（如 LB 实验室检查结果）。RSLNKGRP 用于关联这些贡献数据。**[Source: domains/RS/assumptions.md — item_4]**\n\n### 示例\n\n在 RS 示例中，可以看到 RSLNKGRP 的使用：\n\n- **Row 3**: `RSLNKGRP = \"A2\"`，表示该 Overall Response 记录关联到 TR 域中具有相同 TRLNKGRP 值的记录。**[Source: domains/RS/examples.md — Example 1]**\n- **Row 7**: `RSLNKGRP = \"A3\"`，表示另一个 Overall Response 记录关联到不同的 TR 记录组。**[Source: domains/RS/examples.md — Example 1]**\n\n### 补充：TU 与 TR 的关联\n\n需要注意的是，**TU（Tumor/Lesion Identification）域** 与 **TR 域** 之间使用 **TULNKID / TRLNKID** 变量进行关联，而非 --LNKGRP。TU 域中的肿瘤/病灶识别记录通过 TULNKID 关联到 TR 域中的测量/评估记录（通过 TRLNKID）。**[Source: domains/TU/assumptions.md — item_2; domains/TR/assumptions.md — item_1]**\n\n### 总结\n\n| 关联对 | 变量 | 机制 |\n|-------|------|------|\n| **TU ↔ TR** | TULNKID ↔ TRLNKID | RELREC 数据集到数据集链接 |\n| **TR ↔ RS** | TRLNKGRP ↔ RSLNKGRP | RELREC 数据集到数据集链接 |",
      "elapsed_s": 8.53
    },
    {
      "id": "q28",
      "category": "cross_domain",
      "question": "What is the FA (Findings About Events or Interventions) domain and how does it link to parent domains like AE or CM using FAOBJ?",
      "source_recall": 1.0,
      "source_hits": [
        "domains/FA/spec.md"
      ],
      "source_misses": [],
      "top5_sources": [
        "VARIABLE_INDEX.md",
        "domains/FA/spec.md",
        "domains/AE/spec.md",
        "domains/CM/spec.md",
        "domains/FA/assumptions.md"
      ],
      "top5_similarities": [
        0.5985,
        0.5917,
        0.6388,
        0.4692,
        0.6937
      ],
      "fact_recall": 1.0,
      "fact_hits": [
        "Findings About",
        "FAOBJ",
        "FATESTCD"
      ],
      "fact_misses": [],
      "answer_preview": "## FA（Findings About Events or Interventions）域概述\n\nFA 域是 SDTM 中用于记录**关于事件或干预措施的发现**的域。它属于 **Findings 观察类**的一个子类型（Findings About），用于表示对事件或干预措施特定方面的测量或评估，而非事件或干预措施本身。\n\n### 变量定义\n\nFA 域的核心变量包括（来自 spec.md）：\n\n| 变量名 | Label | Type | Role | Core |\n|--------|-------|------|------|------|\n| FATESTCD | Findings About Test Short Name | Char | Topic | Req |\n| FATEST | Findings About Test Name | Char | Synonym Qualifier | Req |\n| FAOBJ | Object of the Observation | Char | Record Qualifier | Req |\n| FAORRES | Result or Finding in Original Units | Char | Result Qualifier | Exp |\n| FASTRESC | Character Result/Fi",
      "usage": {
        "prompt_tokens": 16893,
        "completion_tokens": 1925,
        "total_tokens": 18818
      },
      "model": "deepseek/deepseek-chat",
      "answer": "## FA（Findings About Events or Interventions）域概述\n\nFA 域是 SDTM 中用于记录**关于事件或干预措施的发现**的域。它属于 **Findings 观察类**的一个子类型（Findings About），用于表示对事件或干预措施特定方面的测量或评估，而非事件或干预措施本身。\n\n### 变量定义\n\nFA 域的核心变量包括（来自 spec.md）：\n\n| 变量名 | Label | Type | Role | Core |\n|--------|-------|------|------|------|\n| FATESTCD | Findings About Test Short Name | Char | Topic | Req |\n| FATEST | Findings About Test Name | Char | Synonym Qualifier | Req |\n| FAOBJ | Object of the Observation | Char | Record Qualifier | Req |\n| FAORRES | Result or Finding in Original Units | Char | Result Qualifier | Exp |\n| FASTRESC | Character Result/Finding in Std Format | Char | Result Qualifier | Exp |\n| FASTRESN | Numeric Result/Finding in Standard Units | Num | Result Qualifier | Perm |\n| FADTC | Date/Time of Collection | Char | Timing | Exp |\n\n**[Source: domains/FA/spec.md]**\n\n### 何时使用 FA 域\n\n根据 SDTMIG v3.4 §6.4.1，使用 FA 域的三个标准：\n\n1. **数据或观察具有与关联事件/干预措施整体不同的时间点** — 例如，对不良事件某个症状在不同访视时的严重程度评估（\"快照\"或\"切片\"）\n2. **需要多个变量才能表示的观察** — 无法作为补充限定符（SUPPQUAL）添加到父记录\n3. **指示预设AE发生的数据** — 每次访视时询问预设AE是否发生\n\n**[Source: domains/FA/assumptions.md — item_6]**\n\n---\n\n## FAOBJ 的作用：链接到父域\n\n**FAOBJ（Object of the Observation）** 是 FA 域独有的变量，其作用是**描述被测量的对象**——即该发现是关于哪个事件或干预措施的。\n\n### 链接机制\n\nFAOBJ 的值来自父域记录的编码术语（如 AEDECOD），而非直接收集的原始术语。通过 FAOBJ，FA 记录与父域记录建立语义关联。\n\n### 示例 1：FA 链接到 AE（不良事件）\n\n来自 Example 6 的数据：\n\n**ae.xpt（父域）**\n\n| USUBJID | AETERM | AEDECOD | AESEV | AESTDTC |\n|---------|--------|---------|-------|---------|\n| 123 | Morning queasiness | Nausea | MODERATE | 2006-02-01 |\n| 123 | Watery stools | Diarrhea | MILD | 2006-02-01 |\n\n**faae.xpt（FA 域）**\n\n| USUBJID | FATESTCD | FATEST | FAOBJ | FAORRES | VISITNUM | FADTC |\n|---------|----------|--------|-------|---------|----------|-------|\n| 123 | SEV | Severity/Intensity | **Nausea** | MILD | 2 | 2006-02-02 |\n| 123 | SEV | Severity/Intensity | **Nausea** | MODERATE | 3 | 2006-02-09 |\n| 123 | SEV | Severity/Intensity | **Diarrhea** | MILD | 2 | 2006-02-02 |\n| 123 | SEV | Severity/Intensity | **Diarrhea** | MILD | 3 | 2006-02-09 |\n\n**关键点：** FAOBJ 的值（Nausea, Diarrhea）等于 AEDECOD 的值，而非 AETERM 的值。FASPID 可携带 AESPID 的值作为辅助链接标识符。\n\n**[Source: domains/FA/examples.md — Example 6]**\n\n### 示例 2：FA 链接到 AE（预设AE）\n\n来自 Example 4 的数据：\n\n**faae.xpt**\n\n| USUBJID | FATESTCD | FATEST | FAOBJ | FAORRES | VISITNUM |\n|---------|----------|--------|-------|---------|----------|\n| 1234 | OCCUR | Occurrence Indicator | **Headache** | Y | 2 |\n| 1234 | OCCUR | Occurrence Indicator | **Respiratory Infection** | N | 2 |\n| 1234 | OCCUR | Occurrence Indicator | **Nausea** | Y | 3 |\n\n**ae.xpt**\n\n| USUBJID | AETERM | AEDECOD | AEPRESP | AESTDTC |\n|---------|--------|---------|---------|---------|\n| 1234 | Headache | Headache | Y | 2005-09-30 |\n| 1234 | Nausea | Nausea | Y | 2005-10-08 |\n\n**关键点：** 当 FAORRES=\"Y\" 时，对应的 AE 记录中 AEPRESP=\"Y\"。此处未使用 RELREC 建立正式关系，而是通过 FAOBJ 和 AEPRESP 实现语义关联。\n\n**[Source: domains/FA/examples.md — Example 4]**\n\n### 示例 3：FA 链接到 AE（注射部位皮疹）\n\n来自 Example 2 的数据：\n\n**ae.xpt**\n\n| USUBJID | AESPID | AETERM | AELOC | AELAT |\n|---------|--------|--------|-------|-------|\n| XYZ-789 | 5 | Injection site rash | ARM | LEFT |\n\n**faae.xpt**\n\n| USUBJID | FASPID | FATESTCD | FATEST | FAOBJ | FAORRES |\n|---------|--------|----------|--------|-------|---------|\n| XYZ-789 | 5 | LDIAM | Longest Diameter | **Injection Site Rash** | 2.5 |\n| XYZ-789 | 5 | MACRNG | Number of Macules Range | **Injection Site Rash** | 26 to 100 |\n\n**关键点：** FASPID 携带 AESPID 的值（5），作为跨域链接的辅助标识符。FAOBJ 的值来自 AETERM。\n\n**[Source: domains/FA/examples.md — Example 2]**\n\n---\n\n## 链接方式总结\n\n| 链接方式 | 说明 | 示例 |\n|---------|------|------|\n| **FAOBJ 语义链接** | FAOBJ 的值等于父域的编码术语（AEDECOD）或原始术语（AETERM） | FAOBJ=\"Nausea\" ↔ AEDECOD=\"Nausea\" |\n| **FASPID ↔ AESPID** | 通过赞助商定义的标识符进行跨域匹配 | FASPID=\"5\" ↔ AESPID=\"5\" |\n| **RELREC 正式关系** | 使用 RELREC 域建立正式记录级关系 | 当需要明确记录级关联时使用 |\n| **AEPRESP 标志** | 对于预设AE，FA 记录中 FAORRES=\"Y\" 时，AE 记录中 AEPRESP=\"Y\" | 无需 RELREC 的隐式关联 |\n\n**[Source: domains/FA/assumptions.md — item_4; domains/FA/examples.md — Example 4, Example 6]**\n\n---\n\n## 相关域\n\nFA 域可与以下域关联：\n\n| 父域 | 关系说明 |\n|------|---------|\n| AE | 关于不良事件的发现（严重程度、发生指示等） |\n| CM | 关于伴随用药的发现 |\n| PR | 关于手术/程序的发现 |\n| EX | 关于暴露的发现 |\n| EC | 关于按收集的暴露的发现 |\n| ML | 关于膳食的发现 |\n| SU | 关于物质使用的发现 |\n\n**[Source: domains/FA/spec.md — Related Domains]**\n\n---\n\n## 关键注意事项\n\n1. **FAOBJ 是必需的** — 每条 FA 记录都必须填充 FAOBJ，描述被测量的对象 **[Source: domains/FA/spec.md — FAOBJ]**\n2. **FATESTCD 和 FAOBJ 共同描述观察主题** — FATESTCD 描述测量/评估，FAOBJ 描述该测量是关于哪个事件或干预措施的 **[Source: model/02_observation_classes.md — §6.4.3]**\n3. **不应使用的变量** — FA 域通常不应使用 --BODSYS、--MODIFY、--SEV、--TOXGR 等限定符 **[Source: domains/FA/assumptions.md — item_6]**\n4. **当评估与事件整体时间点不同时使用 FA** — 如果评估适用于事件整体，则应使用事件域自身的限定符（如 AESEV） **[Source: domains/FA/assumptions.md — item_4]**",
      "elapsed_s": 19.89
    },
    {
      "id": "q29",
      "category": "cross_domain",
      "question": "How do the four Trial Design domains TA (Trial Arms), TE (Trial Elements), TV (Trial Visits), and TI (Trial Inclusion/Exclusion) work together to define a study design?",
      "source_recall": 1.0,
      "source_hits": [
        "domains/TA/assumptions.md",
        "domains/TE/assumptions.md"
      ],
      "source_misses": [],
      "top5_sources": [
        "domains/TA/spec.md",
        "domains/TE/spec.md",
        "domains/TV/spec.md",
        "domains/TE/assumptions.md",
        "domains/TA/assumptions.md"
      ],
      "top5_similarities": [
        0.7568,
        0.7352,
        0.7534,
        0.7359,
        0.7245
      ],
      "fact_recall": 1.0,
      "fact_hits": [
        "TA",
        "TE",
        "TV",
        "TI"
      ],
      "fact_misses": [],
      "answer_preview": "# Trial Design Domains 的协同工作机制\n\nTA、TE、TV、TI 四个 Trial Design 域从不同维度共同描述试验设计，它们之间存在明确的层级和引用关系：\n\n## 1. 核心层级结构\n\n### TE（Trial Elements）— 基础构建块\nTE 定义了试验中所有**唯一的元素**（element），每个元素代表一个具有特定目的的时间区间。每个元素在 TE 中只出现一次，包含元素代码（ETCD）、描述（ELEMENT）、开始规则（TESTRL）和结束规则（TEENRL）。**[Source: domains/TE/assumptions.md]**\n\n### TA（Trial Arms）— 元素的有序组合\nTA 将 TE 中定义的元素按顺序组装成**试验臂**（arm）。每个臂是一条完整的计划路径，由多个元素按 TAETORD（计划顺序）排列组成。TA 还包含：\n- **TABRANCH**（分支规则）：描述试验流程中的分叉点，产生不同的臂\n- **TATRANS**（转换规则）：描述臂内元素之间的跳转条件\n- **EPOCH**（时期）：将元素分组到更高层次的时期概念中\n\n**[Source: domains/TA/assumptions.md, model/05_study_level_data.md]**\n\n### TV（Trial Visi",
      "usage": {
        "prompt_tokens": 14714,
        "completion_tokens": 1138,
        "total_tokens": 15852
      },
      "model": "deepseek/deepseek-chat",
      "answer": "# Trial Design Domains 的协同工作机制\n\nTA、TE、TV、TI 四个 Trial Design 域从不同维度共同描述试验设计，它们之间存在明确的层级和引用关系：\n\n## 1. 核心层级结构\n\n### TE（Trial Elements）— 基础构建块\nTE 定义了试验中所有**唯一的元素**（element），每个元素代表一个具有特定目的的时间区间。每个元素在 TE 中只出现一次，包含元素代码（ETCD）、描述（ELEMENT）、开始规则（TESTRL）和结束规则（TEENRL）。**[Source: domains/TE/assumptions.md]**\n\n### TA（Trial Arms）— 元素的有序组合\nTA 将 TE 中定义的元素按顺序组装成**试验臂**（arm）。每个臂是一条完整的计划路径，由多个元素按 TAETORD（计划顺序）排列组成。TA 还包含：\n- **TABRANCH**（分支规则）：描述试验流程中的分叉点，产生不同的臂\n- **TATRANS**（转换规则）：描述臂内元素之间的跳转条件\n- **EPOCH**（时期）：将元素分组到更高层次的时期概念中\n\n**[Source: domains/TA/assumptions.md, model/05_study_level_data.md]**\n\n### TV（Trial Visits）— 访视计划\nTV 定义试验中计划的**访视**（visit），包括访视编号（VISITNUM）、开始规则（TVSTRL）和结束规则（TVENRL）。访视可以跨越时期边界（epoch transition），如示例中 Visit 2 跨越 Screen→Run-In 的转换。**[Source: domains/TV/examples.md]**\n\n### TI（Trial Inclusion/Exclusion）— 入排标准\nTI 以表格形式记录试验协议中的**所有入选和排除标准**，提供受试者筛选的依据。**[Source: domains/TI/assumptions.md]**\n\n## 2. 域间引用关系\n\n```\nTE（元素定义）\n  ↑ 被 TA 引用（通过 ETCD）\n  ↑ 被 TV 引用（当访视需要引用元素时）\n\nTA（臂定义）\n  → 引用 TE 中的元素（ETCD）\n  → 定义 EPOCH 分组\n  → TV 中的访视可引用 TA 中的臂和时期\n\nTV（访视计划）\n  → 可引用 TA 中的 EPOCH 和元素（如 TVSTRL/TVENRL 中引用 \"Start of Screen Epoch\"）\n  → 当臂包含重复元素时，需使用 TAETORD 精确定位访视时间点\n\nTI（入排标准）\n  → 独立于 TA/TE/TV 的时序结构\n  → 与 IE 域（受试者级入排标准未满足记录）互补\n```\n\n**[Source: domains/TA/spec.md, domains/TE/spec.md, domains/TV/spec.md, domains/TI/spec.md]**\n\n## 3. 协同工作示例\n\n以 Example Trial 1（3臂平行试验）为例：\n\n1. **TE** 定义 3 个唯一元素：Screen、Run-In、Placebo/Drug A/Drug B（3个治疗元素）\n2. **TA** 将元素组装为 3 个臂：\n   - Placebo 臂：Screen → Run-In → Placebo\n   - Drug A 臂：Screen → Run-In → Drug A\n   - Drug B 臂：Screen → Run-In → Drug B\n   - 定义 3 个 EPOCH：Screening、Run-In、Treatment\n3. **TV** 定义 5 个访视，其中：\n   - Visit 1：Screening Epoch 开始\n   - Visit 2：跨越 Screen→Run-In 转换\n   - Visit 3：跨越 Run-In→Treatment 转换\n   - Visit 4-5：Treatment Epoch 内\n4. **TI** 记录所有入排标准，供筛选阶段使用\n\n**[Source: domains/TA/examples.md, domains/TV/examples.md]**\n\n## 4. 关键设计原则\n\n- **元素 vs 时期**：元素是可重用的构建块（在 TE 中唯一），时期是更高层次的试验阶段概念（在 TA 中定义）。在交叉试验中，元素对应\"治疗效应\"，时期对应\"周期效应\"。**[Source: domains/TE/examples.md]**\n- **分支 vs 转换**：TABRANCH 描述产生不同臂的分叉点（无\"if\"子句），TATRANS 描述臂内的选择（含\"if\"子句）。**[Source: domains/TA/examples.md]**\n- **访视跨越时期**：TV 允许访视跨越时期边界，这在实践中很常见（如筛选确认和首次给药发生在同一次访视中）。**[Source: domains/TV/examples.md]**\n\n## 5. 与其他域的关系\n\n这四个域同属 **Trial Design** 类，与 TD（Trial Disease Assessments）、TM（Trial Disease Milestones）、TS（Trial Summary）共同构成完整的试验设计模型。**[Source: domains/TA/spec.md, domains/TE/spec.md, domains/TV/spec.md, domains/TI/spec.md]**",
      "elapsed_s": 14.34
    },
    {
      "id": "q30",
      "category": "cross_domain",
      "question": "What is the CO (Comments) domain and how does it reference records in other SDTM domains? Describe the RDOMAIN and IDVAR mechanism.",
      "source_recall": 1.0,
      "source_hits": [
        "domains/CO/spec.md",
        "domains/CO/assumptions.md"
      ],
      "source_misses": [],
      "top5_sources": [
        "VARIABLE_INDEX.md",
        "domains/CO/spec.md",
        "chapters/ch08_relationships.md",
        "domains/CO/assumptions.md",
        "domains/CO/assumptions.md"
      ],
      "top5_similarities": [
        0.569,
        0.6492,
        0.6728,
        0.6876,
        0.7154
      ],
      "fact_recall": 1.0,
      "fact_hits": [
        "COVAL",
        "RDOMAIN",
        "IDVAR"
      ],
      "fact_misses": [],
      "answer_preview": "## CO（Comments）域及其引用机制\n\n### CO 域概述\n\nCO（Comments）是一个 **Special-Purpose** 域，用于提交与一个或多个 SDTM 域数据相关的自由文本评论，或在专门的 CRF 评论页面上收集的评论。评论通常不是对特定问题的回答，而是自愿提供的自由文本或非请求性观察。[Source: domains/CO/assumptions.md — item_1]\n\n**结构**：每个受试者每条评论一条记录。[Source: model/03_special_purpose_domains.md]\n\n**核心变量**：\n\n| 变量 | Label | Type | Role | Core |\n|------|-------|------|------|------|\n| COVAL | Comment | Char | Topic | Req |\n| COSEQ | Sequence Number | Num | Identifier | Req |\n| COEVAL | Evaluator | Char | Record Qualifier | Perm |\n| CODTC | Date/Time of Comment | Char | Timing | Perm |\n| CODY | Study Day of Comment | Num |",
      "usage": {
        "prompt_tokens": 15275,
        "completion_tokens": 1044,
        "total_tokens": 16319
      },
      "model": "deepseek/deepseek-chat",
      "answer": "## CO（Comments）域及其引用机制\n\n### CO 域概述\n\nCO（Comments）是一个 **Special-Purpose** 域，用于提交与一个或多个 SDTM 域数据相关的自由文本评论，或在专门的 CRF 评论页面上收集的评论。评论通常不是对特定问题的回答，而是自愿提供的自由文本或非请求性观察。[Source: domains/CO/assumptions.md — item_1]\n\n**结构**：每个受试者每条评论一条记录。[Source: model/03_special_purpose_domains.md]\n\n**核心变量**：\n\n| 变量 | Label | Type | Role | Core |\n|------|-------|------|------|------|\n| COVAL | Comment | Char | Topic | Req |\n| COSEQ | Sequence Number | Num | Identifier | Req |\n| COEVAL | Evaluator | Char | Record Qualifier | Perm |\n| CODTC | Date/Time of Comment | Char | Timing | Perm |\n| CODY | Study Day of Comment | Num | Timing | Perm |\n\n[Source: VARIABLE_INDEX.md — CO]\n\n---\n\n### RDOMAIN 和 IDVAR 引用机制\n\nCO 域使用与 SUPPQUAL 相同的键集（**STUDYID, RDOMAIN, USUBJID, IDVAR, IDVARVAL**）来标识相关的父记录。[Source: chapters/ch08_relationships.md — §8.5]\n\nCO 域支持 **3 种评论来源**，通过 RDOMAIN、IDVAR 和 IDVARVAL 的填充方式区分：[Source: domains/CO/assumptions.md — item_3]\n\n#### 1. 与任何域或父记录无关的评论\n- **RDOMAIN** = null\n- **IDVAR** = null\n- **IDVARVAL** = null\n- **CODTC** 应填充（如果已采集）\n- 示例：在独立评论页面上收集的评论\n\n#### 2. 与某个域相关但不与特定父记录相关的评论\n- **RDOMAIN** = 父域的 DOMAIN 代码（如 \"PE\"）\n- **IDVAR** = null\n- **IDVARVAL** = null\n- **CODTC** 应填充\n- 示例：在 PE 页面底部收集的评论，适用于该访视的所有 PE 记录\n\n#### 3. 与特定父记录或父记录组相关的评论\n- **RDOMAIN** = 父记录的 DOMAIN 代码（如 \"AE\"）\n- **IDVAR** = 父记录的关键变量名（如 \"AESEQ\"）\n- **IDVARVAL** = 该关键变量的值（如 \"7\"）\n- **CODTC** 应为 null（因为父记录的时序被继承）\n- 示例：与 AESEQ=7 的特定 AE 记录相关的评论\n\n---\n\n### 分组引用\n\n当评论与同一域中的多条记录相关时，可以使用分组变量（如 **--GRPID**）作为 IDVAR 的值。例如：\n- IDVAR = \"EXGRPID\", IDVARVAL = \"COMBO1\" — 评论与 EX 域中 EXGRPID=\"COMBO1\" 的一组记录相关\n- IDVAR = \"VSGRPID\", IDVARVAL = \"VS2\" — 评论与 VS 域中 VSGRPID=\"VS2\" 的一组记录相关\n\n[Source: domains/CO/examples.md — Example 1, rows 4-5]\n\n---\n\n### 访视关联的三种方式\n\n对于与特定访视相关的评论，有三种表示方式：[Source: domains/CO/examples.md — Example 1, rows 6-8]\n\n1. **通过 SV 域**：RDOMAIN=\"SV\", IDVAR=\"VISITNUM\", IDVARVAL=访视编号\n2. **通过 COREF**：COREF=\"VISIT 4\"（RDOMAIN、IDVAR、IDVARVAL 均为 null）\n3. **通过 VISITNUM**：直接填充 VISITNUM 变量（RDOMAIN、IDVAR、IDVARVAL 均为 null）\n\n---\n\n### 补充说明\n\n- **COREF** 变量可用于存储额外的引用信息（如 CRF 页码或名称）[Source: chapters/ch08_relationships.md — §8.5]\n- 当评论文本超过 200 个字符时，前 200 个字符放入 COVAL，后续每 200 个字符依次放入 COVAL1、COVAL2 等[Source: domains/CO/assumptions.md — item_4]\n- 一条评论只能关联到一个域（RDOMAIN 只能有一个值）。如果一条评论涉及多个域，可能需要重复该评论记录[Source: chapters/ch08_relationships.md — §8.5]\n- CO 域可以添加 Timing 变量（如 VISITNUM、VISIT）[Source: chapters/ch08_relationships.md — §8.5]",
      "elapsed_s": 11.44
    },
    {
      "id": "q31",
      "category": "cross_domain",
      "question": "How are the EC (Exposure as Collected) and EX (Exposure) domains different in purpose, and when should each be used?",
      "source_recall": 1.0,
      "source_hits": [
        "domains/EC/assumptions.md"
      ],
      "source_misses": [],
      "top5_sources": [
        "domains/EC/spec.md",
        "domains/EX/spec.md",
        "domains/EX/assumptions.md",
        "domains/EC/assumptions.md",
        "domains/EX/assumptions.md"
      ],
      "top5_similarities": [
        0.5814,
        0.5962,
        0.7328,
        0.7317,
        0.5907
      ],
      "fact_recall": 1.0,
      "fact_hits": [
        "collected",
        "EX",
        "EC"
      ],
      "fact_misses": [],
      "answer_preview": "## EC 与 EX 域的区别与使用场景\n\n### 核心区别\n\n| 维度 | EC (Exposure as Collected) | EX (Exposure) |\n|------|---------------------------|---------------|\n| **目的** | 反映**按收集的**方案规定研究治疗给药记录 | 反映**按方案规定单位**的研究治疗给药记录，通常是**衍生数据集** |\n| **数据性质** | 原始收集数据（如片数、mL数） | 衍生/计算数据（如mg、mg/kg） |\n| **单位** | 收集时的单位（如 TABLET、mL） | 方案规定单位（如 mg、mg/kg） |\n| **是否必需** | 可选（当EC与EX完全一致时可省略） | 所有含方案规定研究治疗的试验**必需** |\n\n### 使用规则\n\n**EC 的使用场景**（依据 [Source: domains/EC/assumptions.md -- item_1]）：\n\n1. **当收集的暴露信息不能或不应直接表示为 EX 域时**必须使用 EC。例如：\n   - 按片数收集但方案单位是 mg\n   - 按 mL 收集但方案单位是 mg/kg\n   \n2. **收集的暴露数据通常组合使用**：EC + DA（产品问责）+ FA（关于事件或干预的发现）\n\n3. **收",
      "usage": {
        "prompt_tokens": 14382,
        "completion_tokens": 942,
        "total_tokens": 15324
      },
      "model": "deepseek/deepseek-chat",
      "answer": "## EC 与 EX 域的区别与使用场景\n\n### 核心区别\n\n| 维度 | EC (Exposure as Collected) | EX (Exposure) |\n|------|---------------------------|---------------|\n| **目的** | 反映**按收集的**方案规定研究治疗给药记录 | 反映**按方案规定单位**的研究治疗给药记录，通常是**衍生数据集** |\n| **数据性质** | 原始收集数据（如片数、mL数） | 衍生/计算数据（如mg、mg/kg） |\n| **单位** | 收集时的单位（如 TABLET、mL） | 方案规定单位（如 mg、mg/kg） |\n| **是否必需** | 可选（当EC与EX完全一致时可省略） | 所有含方案规定研究治疗的试验**必需** |\n\n### 使用规则\n\n**EC 的使用场景**（依据 [Source: domains/EC/assumptions.md -- item_1]）：\n\n1. **当收集的暴露信息不能或不应直接表示为 EX 域时**必须使用 EC。例如：\n   - 按片数收集但方案单位是 mg\n   - 按 mL 收集但方案单位是 mg/kg\n   \n2. **收集的暴露数据通常组合使用**：EC + DA（产品问责）+ FA（关于事件或干预的发现）\n\n3. **收集的暴露日志数据通常反映产品层面的量**（如片数、mL数）\n\n**EX 的使用场景**（依据 [Source: domains/EX/assumptions.md -- item_1]）：\n\n1. **EX 是衍生数据集**，其中 EXDOSE 反映方案规定的单位。收集的数据点（如片数、输注总量）加上额外输入（如随机化文件、浓度、剂量强度、产品问责数据）用于推导 EX 记录。\n\n2. **EX 应包含每个受试者每个恒定给药间隔一条记录**。例如：\n   - 每周一次标准剂量给药6周，可表示为1条记录（整个6周）或6条记录（每周1次）\n\n3. **EX 的常见推导方法**（从最直接到最间接）：\n   - 研究者实际观察给药\n   - 自动配药设备记录\n   - 受试者回忆\n   - 产品问责数据\n   - 方案规定（盲态研究时可不填充）\n\n### EC 与 EX 的关系\n\n- **EC 到 EX 的汇总程度**由申办方根据研究目的和分析需求定义 [Source: domains/EC/assumptions.md -- item_6]\n- **当 EC 与 EX 记录之间的关系可用 RELREC 描述时，应定义 RELREC** [Source: domains/EX/assumptions.md -- item_5]\n- **EX 的推导方法必须在 Define-XML 中描述** [Source: domains/EX/assumptions.md -- item_5]\n- **当同时使用 EC 和 EX 时**，EXVAMT 和 EXVAMTU 不应在 EX 中使用；收集的值应在 ECDOSE/ECDOSU（以及 ECVAMT/ECVAMTU）中表示 [Source: domains/EX/assumptions.md -- item_6]\n\n### 典型示例\n\n**示例1：片数→mg 转换**（来自 [Source: domains/EX/examples.md -- Example 3]）\n\nEC 记录：BOTTLE B, 1 TABLET, QD\nEX 记录：DRUG X, 10 mg, TABLET, QD, ORAL\n\n**示例2：mL→mg/kg 转换**（来自 [Source: domains/EX/examples.md -- Example 7]）\n\nEC 记录：DRUG Z, 99 mL, 5.5 mg/mL（收集的实际给药量）\nEX 记录：DRUG Z, 9.9 mg/kg（按方案单位计算的剂量）\n\n### 总结\n\n| 条件 | 应使用 |\n|------|--------|\n| 收集单位与方案单位一致，且无需衍生 | EC 可选，直接使用 EX |\n| 收集单位与方案单位不同（如片数→mg） | **必须使用 EC**，再衍生 EX |\n| 需要记录未给药的剂量（如受试者原因未服） | **使用 EC**（EC 可记录未给药，EX 不包含未给药记录） |\n| 所有含方案规定研究治疗的试验 | **必须提供 EX** |",
      "elapsed_s": 11.33
    },
    {
      "id": "q32",
      "category": "cross_domain",
      "question": "How is VISIT and VISITNUM used consistently across observation-class domains, and what role does the SV (Subject Visits) domain play in tracking actual visit dates?",
      "source_recall": 1.0,
      "source_hits": [
        "domains/SV/spec.md",
        "domains/SV/assumptions.md"
      ],
      "source_misses": [],
      "top5_sources": [
        "VARIABLE_INDEX.md",
        "domains/SV/spec.md",
        "model/03_special_purpose_domains.md",
        "chapters/ch04_general_assumptions.md",
        "domains/SV/assumptions.md"
      ],
      "top5_similarities": [
        0.6554,
        0.6543,
        0.7044,
        0.6665,
        0.6646
      ],
      "fact_recall": 1.0,
      "fact_hits": [
        "VISIT",
        "VISITNUM",
        "SV"
      ],
      "fact_misses": [],
      "answer_preview": "## VISIT 和 VISITNUM 在观察类域中的一致使用，以及 SV 域的作用\n\n### 一、VISIT 和 VISITNUM 在观察类域中的一致使用\n\n**VISITNUM**（访视编号，Num 型）和 **VISIT**（访视名称，Char 型）是 SDTM 中的 **Timing** 角色变量，在三大观察类（Interventions、Events、Findings）的域中一致使用：\n\n| 属性 | VISITNUM | VISIT |\n|------|----------|-------|\n| **Label** | Visit Number | Visit Name |\n| **Type** | Num | Char |\n| **Role** | Timing（在 SV 域中为 Topic） | Timing |\n| **Core** | Exp（期望） | Perm（允许） |\n| **Controlled Terms** | — | — |\n\n**[Source: domains/AG/spec.md — VISITNUM, VISIT; domains/FA/spec.md — VISITNUM; domains/PE/spec.md — VISITNUM]**\n\n**核心规则：**\n\n1. **一对一关系**：VISIT 和 VISITNUM 之间必须存在一",
      "usage": {
        "prompt_tokens": 14752,
        "completion_tokens": 1763,
        "total_tokens": 16515
      },
      "model": "deepseek/deepseek-chat",
      "answer": "## VISIT 和 VISITNUM 在观察类域中的一致使用，以及 SV 域的作用\n\n### 一、VISIT 和 VISITNUM 在观察类域中的一致使用\n\n**VISITNUM**（访视编号，Num 型）和 **VISIT**（访视名称，Char 型）是 SDTM 中的 **Timing** 角色变量，在三大观察类（Interventions、Events、Findings）的域中一致使用：\n\n| 属性 | VISITNUM | VISIT |\n|------|----------|-------|\n| **Label** | Visit Number | Visit Name |\n| **Type** | Num | Char |\n| **Role** | Timing（在 SV 域中为 Topic） | Timing |\n| **Core** | Exp（期望） | Perm（允许） |\n| **Controlled Terms** | — | — |\n\n**[Source: domains/AG/spec.md — VISITNUM, VISIT; domains/FA/spec.md — VISITNUM; domains/PE/spec.md — VISITNUM]**\n\n**核心规则：**\n\n1. **一对一关系**：VISIT 和 VISITNUM 之间必须存在一一对应关系。VISITNUM 是数值版本，用于排序。**[Source: chapters/ch04_general_assumptions.md — §4.4.5]**\n\n2. **计划访视**：对于计划访视，VISIT、VISITNUM 和 VISITDY 的值必须与 Trial Visits（TV）数据集中的定义一致。**[Source: chapters/ch04_general_assumptions.md — §4.4.5]**\n\n3. **非计划访视**：\n   - VISITNUM 通常仍应填写（例如统一赋值为 99），但可能无法实现完全按时间排序\n   - VISIT 可以留空，或填写通用值（如 \"Unscheduled\"）\n   - VISITDY **不得** 为非计划访视填写（VISITDY 是计划访视日，非计划访视的实际日应使用 --DY 变量）**[Source: chapters/ch04_general_assumptions.md — §4.4.5]**\n\n4. **跨域一致性**：VISITNUM 出现在 **36 个 SDTM 域**中（AG, BE, BS, CP, CV, DA, EG, FA, FT, GF, IE, IS, LB, MB, MI, MK, ML, MS, NV, OE, PC, PE, PR, QS, RE, RP, RS, SC, SR, SS, SV, TR, TU, TV, UR, VS），VISIT 同样出现在这 36 个域中。**[Source: Structured Facts]**\n\n5. **TV 数据集验证**：TV 数据集中的 VISITNUM 值是计划访视的有效值。出现在受试者级数据集中但不在 TV 数据集中的 VISITNUM 值，应视为对应非计划访视。**[Source: domains/TV/assumptions.md — item_6]**\n\n### 二、SV（Subject Visits）域的作用\n\n**SV 域** 是一个 **Special-Purpose** 域，结构为 **每个受试者每个实际或计划访视一条记录**。**[Source: model/03_special_purpose_domains.md]**\n\n**SV 域的核心作用：**\n\n1. **记录实际访视日期**：SV 域通过以下变量追踪受试者的实际访视时间：\n   - **SVSTDTC**（Start Date/Time of Observation，Char，Timing，Exp）— 访视开始日期/时间\n   - **SVENDTC**（End Date/Time of Observation，Char，Timing，Exp）— 访视结束日期/时间\n   - **SVSTDY**（Study Day of Start of Observation，Num，Timing，Perm）— 访视开始的研究日\n   - **SVENDY**（Study Day of End of Observation，Num，Timing，Perm）— 访视结束的研究日\n\n   **[Source: domains/SV/spec.md; model/03_special_purpose_domains.md]**\n\n2. **支持计划与实际对比**：将单个受试者的 SV 数据集与 TV 数据集（描述试验计划访视）进行比较，可以识别 **计划但未完成的访视**。比较 SVSTDY/SVENDY 与 VISIT/VISITDY 的值，通常能揭示与计划访视时间的偏差。**[Source: domains/SV/assumptions.md — overview]**\n\n3. **处理非计划访视**：SV 数据集包含非计划访视的记录，通过 **SVUPDES**（Description of Unplanned Visit，Char，Record Qualifier，Perm）描述非计划访视的原因。**[Source: domains/SV/assumptions.md — item_6]**\n\n4. **流行病/大流行相关变更**：SV 域包含 **SVEPCHGI**（Epi/Pandemic Related Change Indicator，Char，Record Qualifier，Perm，CT: C66742），用于标记因流行病/大流行导致的访视方式变更（如从面对面改为远程）。**[Source: domains/SV/examples.md — Example 1]**\n\n5. **SV 域的完整变量列表（16 个变量）**：\n\n| # | 变量 | Label | Type | Role | Core |\n|---|------|-------|------|------|------|\n| 1 | STUDYID | Study Identifier | Char | Identifier | Req |\n| 2 | DOMAIN | Domain Abbreviation | Char | Identifier | Req |\n| 3 | USUBJID | Unique Subject Identifier | Char | Identifier | Req |\n| 4 | VISITNUM | Visit Number | Num | Topic | Req |\n| 5 | VISIT | Visit Name | Char | Synonym Qualifier | Exp |\n| 6 | SVPRESP | Pre-Specified | Char | Variable Qualifier | Exp |\n| 7 | SVOCCUR | Occurrence | Char | Record Qualifier | Exp |\n| 8 | SVREASOC | Reason for Occurrence Value | Char | Record Qualifier | Perm |\n| 9 | SVCNTMOD | Contact Mode | Char | Record Qualifier | Perm |\n| 10 | SVEPCHGI | Epi/Pandemic Related Change Indicator | Char | Record Qualifier | Perm |\n| 11 | VISITDY | Planned Study Day of Visit | Num | Timing | Exp |\n| 12 | SVSTDTC | Start Date/Time of Visit | Char | Timing | Exp |\n| 13 | SVENDTC | End Date/Time of Visit | Char | Timing | Exp |\n| 14 | SVSTDY | Study Day of Start of Visit | Num | Timing | Perm |\n| 15 | SVENDY | Study Day of End of Visit | Num | Timing | Perm |\n| 16 | SVUPDES | Description of Unplanned Visit | Char | Record Qualifier | Perm |\n\n**[Source: model/03_special_purpose_domains.md]**\n\n### 三、总结：VISIT/VISITNUM 与 SV 域的协同关系\n\n| 方面 | VISIT/VISITNUM（在观察类域中） | SV 域 |\n|------|-------------------------------|-------|\n| **角色** | Timing（时间变量） | Special-Purpose 域 |\n| **用途** | 标识每条记录对应的访视 | 记录受试者实际经历的访视 |\n| **计划访视** | 值来自 TV 数据集 | 记录实际访视日期（SVSTDTC/SVENDTC） |\n| **非计划访视** | VISITNUM 可赋通用值，VISIT 可留空 | 必须包含非计划访视记录，SVUPDES 描述原因 |\n| **日期信息** | 不包含实际访视日期 | 包含实际开始/结束日期和时间 |\n| **验证作用** | 无 | 与 TV 对比可识别计划但未完成的访视 |\n\n**关键区别**：观察类域中的 VISIT/VISITNUM 仅标识 **\"哪个访视\"**，而 SV 域提供 **\"实际何时发生\"** 的完整时间信息。SV 域是连接计划（TV 数据集）与实际执行之间的桥梁。\n\n---\n\n**Authoritative correction (SDTM metadata):**\n- VISIT appears in exactly 36 SDTM domains.\n- VISITNUM appears in exactly 36 SDTM domains.\n- SV contains exactly 16 variables.",
      "elapsed_s": 17.42
    },
    {
      "id": "q33",
      "category": "cross_domain",
      "question": "What is the RELSPEC domain and how does it define relationships between datasets at the study level, as opposed to RELREC which links individual records?",
      "source_recall": 1.0,
      "source_hits": [
        "domains/RELSPEC/spec.md"
      ],
      "source_misses": [],
      "top5_sources": [
        "domains/RELSPEC/spec.md",
        "domains/RELREC/spec.md",
        "domains/RELREC/assumptions.md",
        "chapters/ch08_relationships.md",
        "chapters/ch08_relationships.md"
      ],
      "top5_similarities": [
        0.5813,
        0.6533,
        0.7707,
        0.762,
        0.7252
      ],
      "fact_recall": 1.0,
      "fact_hits": [
        "RELSPEC",
        "RELREC"
      ],
      "fact_misses": [],
      "answer_preview": "# RELSPEC 域与 RELREC 域的区别\n\n## RELSPEC 域\n\n**RELSPEC (Related Specimens)** 是一个**关系数据集 (Relationship)**，用于描述**标本之间的谱系关系**（例如：母标本与衍生等分试样或处理后的标本之间的关系）。**[Source: model/06_relationship_datasets.md §6.7]**\n\n### RELSPEC 变量定义\n\n| # | 变量 | 标签 | 类型 | 角色 | 说明 |\n|---|------|------|------|------|------|\n| 1 | STUDYID | Study Identifier | Char | Identifier | 研究唯一标识符 |\n| 2 | USUBJID | Unique Subject Identifier | Char | Identifier | 受试者唯一标识符 |\n| 3 | REFID | Reference ID | Char | Identifier | 标本引用标识符 (C82531) |\n| 4 | SPEC | Specimen Type | Char | Variable Qualifier (REFID) | 标本类型 (C70713) |\n| 5 | PARENT | Specime",
      "usage": {
        "prompt_tokens": 15697,
        "completion_tokens": 1093,
        "total_tokens": 16790
      },
      "model": "deepseek/deepseek-chat",
      "answer": "# RELSPEC 域与 RELREC 域的区别\n\n## RELSPEC 域\n\n**RELSPEC (Related Specimens)** 是一个**关系数据集 (Relationship)**，用于描述**标本之间的谱系关系**（例如：母标本与衍生等分试样或处理后的标本之间的关系）。**[Source: model/06_relationship_datasets.md §6.7]**\n\n### RELSPEC 变量定义\n\n| # | 变量 | 标签 | 类型 | 角色 | 说明 |\n|---|------|------|------|------|------|\n| 1 | STUDYID | Study Identifier | Char | Identifier | 研究唯一标识符 |\n| 2 | USUBJID | Unique Subject Identifier | Char | Identifier | 受试者唯一标识符 |\n| 3 | REFID | Reference ID | Char | Identifier | 标本引用标识符 (C82531) |\n| 4 | SPEC | Specimen Type | Char | Variable Qualifier (REFID) | 标本类型 (C70713) |\n| 5 | PARENT | Specimen Parent | Char | Identifier | 标识母标本的 REFID，用于追踪谱系 |\n| 6 | LEVEL | Specimen Level | Num | Variable Qualifier (REFID) | 标本的代数编号，采集标本为第一代 |\n\n**[Source: model/06_relationship_datasets.md §6.7]**\n\n### RELSPEC 关键假设\n\n1. **RELSPEC 不用于管理任何其他数据集或域之间的关系** — 它仅用于维护标本之间的关系。**[Source: domains/RELSPEC/assumptions.md item_1]**\n2. **RELSPEC 不需要 RELREC 中使用的额外变量**（如 RDOMAIN、IDVAR、IDVARVAL、RELTYPE、RELID）。**[Source: domains/RELSPEC/assumptions.md item_2]**\n3. 可能适用的 CDISC 受控术语 codelist 包括：SPEC (C77529)、SPECTYPE (C78734) 和 GENSMP (C111114)。**[Source: chapters/ch08_relationships.md §Assumptions]**\n\n---\n\n## RELREC 域\n\n**RELREC (Related Records)** 是一个**关系数据集 (Relationship)**，用于描述：\n- **受试者记录之间的关系**（域内或跨域）\n- **数据集之间的关系**（一对多或多对多）\n\n**[Source: model/06_relationship_datasets.md §6.1]**\n\n### RELREC 变量定义\n\n| # | 变量 | 标签 | 类型 | 角色 | 核心 |\n|---|------|------|------|------|------|\n| 1 | STUDYID | Study Identifier | Char | Identifier | Req |\n| 2 | RDOMAIN | Related Domain Abbreviation | Char | Identifier | Req |\n| 3 | USUBJID | Unique Subject Identifier | Char | Identifier | Exp |\n| 4 | IDVAR | Identifying Variable | Char | Identifier | Req |\n| 5 | IDVARVAL | Identifying Variable Value | Char | Identifier | Exp |\n| 6 | RELTYPE | Relationship Type | Char | Record Qualifier | Exp |\n| 7 | RELID | Relationship Identifier | Char | Record Qualifier | Req |\n\n**[Source: chapters/ch08_relationships.md §8.2.1]**\n\n---\n\n## 核心区别：RELSPEC vs RELREC\n\n| 维度 | RELSPEC | RELREC |\n|------|---------|--------|\n| **用途** | 标本谱系关系 | 记录间/数据集间关系 |\n| **作用范围** | 标本层级（标本→子标本） | 记录层级（域内/跨域）或数据集层级 |\n| **关系类型** | 父-子（标本衍生） | 对等记录或数据集层级（ONE/MANY） |\n| **关键变量** | REFID, PARENT, LEVEL | RDOMAIN, IDVAR, IDVARVAL, RELID, RELTYPE |\n| **受试者级别** | 是（每个受试者） | 两者（受试者级和数据集级） |\n| **数据集级关系** | 不支持 | 支持（USUBJID 和 IDVARVAL 可为空） |\n\n**[Source: model/06_relationship_datasets.md §Summary; domains/RELSPEC/assumptions.md item_1, item_2]**\n\n---\n\n## 关于\"研究级别\"的说明\n\n**RELSPEC 不定义研究级别的数据集关系**。它仅定义**标本之间的谱系关系**（例如：采集的血液标本 → 分离的血浆 → 等分试样）。**[Source: domains/RELSPEC/assumptions.md item_1]**\n\n**RELREC 可以定义数据集级别的关系**（例如：TU 与 TR 之间的一对多关系），此时 USUBJID 和 IDVARVAL 为空，仅使用 STUDYID、RDOMAIN、IDVAR 和 RELTYPE。**[Source: chapters/ch08_relationships.md §8.3.1]**\n\n因此，如果您需要表示**研究级别的数据集关系**（如肿瘤识别与肿瘤结果之间的链接），应使用 **RELREC**，而非 RELSPEC。",
      "elapsed_s": 12.73
    },
    {
      "id": "q34",
      "category": "cross_domain",
      "question": "Which SDTM domains share the controlled terminology codelist for NY (No Yes Response, C66742), and what variable typically uses this codelist in those domains?",
      "source_recall": 1.0,
      "source_hits": [
        "VARIABLE_INDEX.md"
      ],
      "source_misses": [],
      "top5_sources": [
        "VARIABLE_INDEX.md",
        "terminology/core/general_part4.md",
        "chapters/ch04_general_assumptions.md",
        "chapters/ch04_general_assumptions.md",
        "model/01_concepts_and_terms.md"
      ],
      "top5_similarities": [
        0.4516,
        0.5903,
        0.6157,
        0.6351,
        0.5697
      ],
      "fact_recall": 0.5,
      "fact_hits": [
        "C66742"
      ],
      "fact_misses": [
        "NY"
      ],
      "answer_preview": "根据检索到的信息，**No Yes Response (C66742)** 这一受控术语列表被 **41 个 SDTM 域** 所共享。该 codelist 包含 4 个值：N (No)、NA (Not Applicable)、U (Unknown) 和 Y (Yes) **[Source: terminology/core/general_part4.md]**。\n\n以下是使用该 codelist 的域及其典型变量：\n\n| 域 (Domain) | 典型使用变量 (示例) |\n|-------------|-------------------|\n| AE | AECONTRT, AEPRESP, AESCAN, AESER 等 |\n| AG | AGOCCUR, AGPRESP |\n| BS | BSBLFL |\n| CE | CEOCCUR, CEPRESP |\n| CM | CMOCCUR, CMPRESP |\n| CP | CPBLFL, CPCLSIG, CPDRVFL 等 |\n| CV | CVBLFL, CVDRVFL, CVLOBXFL |\n| DM | DTHFL |\n| EC | ECFAST, ECOCCUR, ECPRESP |\n| EG | EGBLFL, EGCLSIG, EGDRVFL 等 |\n| EX | EXFAST |\n| FA | FABLF",
      "usage": {
        "prompt_tokens": 13765,
        "completion_tokens": 927,
        "total_tokens": 14692
      },
      "model": "deepseek/deepseek-chat",
      "answer": "根据检索到的信息，**No Yes Response (C66742)** 这一受控术语列表被 **41 个 SDTM 域** 所共享。该 codelist 包含 4 个值：N (No)、NA (Not Applicable)、U (Unknown) 和 Y (Yes) **[Source: terminology/core/general_part4.md]**。\n\n以下是使用该 codelist 的域及其典型变量：\n\n| 域 (Domain) | 典型使用变量 (示例) |\n|-------------|-------------------|\n| AE | AECONTRT, AEPRESP, AESCAN, AESER 等 |\n| AG | AGOCCUR, AGPRESP |\n| BS | BSBLFL |\n| CE | CEOCCUR, CEPRESP |\n| CM | CMOCCUR, CMPRESP |\n| CP | CPBLFL, CPCLSIG, CPDRVFL 等 |\n| CV | CVBLFL, CVDRVFL, CVLOBXFL |\n| DM | DTHFL |\n| EC | ECFAST, ECOCCUR, ECPRESP |\n| EG | EGBLFL, EGCLSIG, EGDRVFL 等 |\n| EX | EXFAST |\n| FA | FABLFL, FALOBXFL |\n| FT | FTBLFL, FTDRVFL, FTLOBXFL |\n| GF | GFBLFL, GFDRVFL |\n| HO | HOOCCUR, HOPRESP |\n| IE | IEORRES, IESTRESC |\n| IS | ISBLFL, ISDRVFL, ISLOBXFL 等 |\n| LB | LBBLFL, LBCLSIG, LBDRVFL 等 |\n| MB | MBBLFL, MBDRVFL, MBFAST 等 |\n| MH | MHOCCUR, MHPRESP |\n| MI | MIBLFL, MILOBXFL |\n| MK | MKBLFL, MKDRVFL, MKLOBXFL |\n| ML | MLOCCUR, MLPRESP |\n| MS | MSACPTFL, MSBLFL, MSDRVFL 等 |\n| NV | NVBLFL, NVDRVFL, NVLOBXFL |\n| OE | OEACPTFL, OEBLFL, OEDRVFL 等 |\n| PC | PCDRVFL, PCFAST |\n| PE | PEBLFL, PELOBXFL |\n| PR | PROCCUR, PRPRESP |\n| QS | QSBLFL, QSDRVFL, QSLOBXFL |\n| RE | REBLFL, REDRVFL, RELOBXFL |\n| RP | RPBLFL, RPDRVFL, RPLOBXFL |\n| RS | RSACPTFL, RSBLFL, RSDRVFL 等 |\n| SR | SRBLFL, SRLOBXFL |\n| SU | SUOCCUR, SUPRESP |\n| SV | SVEPCHGI, SVOCCUR, SVPRESP |\n| TM | TMRPT |\n| TR | TRACPTFL, TRBLFL, TRLOBXFL |\n| TU | TUACPTFL, TUBLFL, TULOBXFL |\n| UR | URBLFL, URDRVFL, URLOBXFL |\n| VS | VSBLFL, VSCLSIG, VSDRVFL 等 |\n\n**典型使用模式**：该 codelist 最常用于以下类型的变量：\n- **--OCCUR** (事件是否发生，如 AGOCCUR, CEOCCUR)\n- **--PRESP** (是否预设，如 AEPRESP, CMPRESP)\n- **--BLFL** (基线标志，如 LBBLFL, VSBLFL)\n- **--FAST** (空腹标志，如 LBFAST, PCFAST)\n- **--DRVFL** (衍生标志，如 LBDRVFL, VSDRVFL)\n- **--LOBXFL** (超出正常范围标志，如 LBLOBXFL)\n- **--CLSIG** (临床意义标志，如 LBCLSIG, VSCLSIG)\n- **AESER** (严重不良事件标志)\n- **DTHFL** (死亡标志)\n\n**[Source: Structured Facts — C66742]**\n\n---\n\n**Authoritative correction (SDTM metadata):**\n- C66742 appears in exactly 41 SDTM domains.",
      "elapsed_s": 9.06
    },
    {
      "id": "q11",
      "category": "concept",
      "question": "What are the three observation classes in the SDTM model?",
      "source_recall": 1.0,
      "source_hits": [
        "model/02_observation_classes.md"
      ],
      "source_misses": [],
      "top5_sources": [
        "model/01_concepts_and_terms.md",
        "model/02_observation_classes.md",
        "chapters/ch04_general_assumptions.md",
        "chapters/ch04_general_assumptions.md",
        "terminology/supplementary/supplementary_part5.md"
      ],
      "top5_similarities": [
        0.5632,
        0.7205,
        0.5452,
        0.5352,
        0.5473
      ],
      "fact_recall": 1.0,
      "fact_hits": [
        "Interventions",
        "Events",
        "Findings"
      ],
      "fact_misses": [],
      "answer_preview": "根据 SDTM 模型，三大通用观察类（General Observation Classes）为：\n\n1. **Interventions（干预）** — 代表对受试者施用或由受试者使用的、具有实际或预期生理效应的治疗（包括研究性、治疗性及其他处理）。例如：合并用药（CM）、暴露（EX）等。  \n   **[Source: model/02_observation_classes.md — Overview]**\n\n2. **Events（事件）** — 代表自发发生在受试者身上的事件（通常是医学事件）。例如：不良事件（AE）、病史（MH）等。  \n   **[Source: chapters/ch08_relationships.md — 8.6.1 Guidelines for Determining the General Observation Class]**\n\n3. **Findings（发现）** — 代表对受试者进行的测量、检验、评估或检查（包括对受试者整体或取自受试者的标本）。例如：实验室检查（LB）、生命体征（VS）等。  \n   **[Source: chapters/ch08_relationships.md — 8.6.1 Guidelines for Determining the General Observation Class]**\n\n此外，SDT",
      "usage": {
        "prompt_tokens": 14978,
        "completion_tokens": 319,
        "total_tokens": 15297
      },
      "model": "deepseek/deepseek-chat",
      "answer": "根据 SDTM 模型，三大通用观察类（General Observation Classes）为：\n\n1. **Interventions（干预）** — 代表对受试者施用或由受试者使用的、具有实际或预期生理效应的治疗（包括研究性、治疗性及其他处理）。例如：合并用药（CM）、暴露（EX）等。  \n   **[Source: model/02_observation_classes.md — Overview]**\n\n2. **Events（事件）** — 代表自发发生在受试者身上的事件（通常是医学事件）。例如：不良事件（AE）、病史（MH）等。  \n   **[Source: chapters/ch08_relationships.md — 8.6.1 Guidelines for Determining the General Observation Class]**\n\n3. **Findings（发现）** — 代表对受试者进行的测量、检验、评估或检查（包括对受试者整体或取自受试者的标本）。例如：实验室检查（LB）、生命体征（VS）等。  \n   **[Source: chapters/ch08_relationships.md — 8.6.1 Guidelines for Determining the General Observation Class]**\n\n此外，SDTM 还包括**特殊用途域（Special-Purpose Domains）**、**试验设计模型数据集（Trial Design Model Datasets）**、**关系数据集（Relationship Datasets）** 和**研究参考数据集（Study Reference Datasets）**。  \n**[Source: model/01_concepts_and_terms.md — Concept Map; chapters/ch04_general_assumptions.md — 4.1.1]**",
      "elapsed_s": 5.17
    },
    {
      "id": "q12",
      "category": "concept",
      "question": "What do the Core designations Req, Exp, and Perm mean in SDTM?",
      "source_recall": 1.0,
      "source_hits": [
        "chapters/ch04"
      ],
      "source_misses": [],
      "top5_sources": [
        "chapters/ch04_general_assumptions.md",
        "VARIABLE_INDEX.md",
        "domains/SUPPQUAL/spec.md",
        "chapters/ch04_general_assumptions.md",
        "domains/CO/spec.md"
      ],
      "top5_similarities": [
        0.6571,
        0.5558,
        0.6055,
        5.7202,
        0.5926
      ],
      "fact_recall": 1.0,
      "fact_hits": [
        "Required",
        "Expected",
        "Permissible"
      ],
      "fact_misses": [],
      "answer_preview": "## SDTM 中 Core 设计含义\n\nSDTM 的 Core 列定义了变量在数据集中的三种必需性级别：\n\n| Core 值 | 含义 | 规则 |\n|---------|------|------|\n| **Req** (Required) | 必需变量 — 是识别数据记录（即关键标识变量和主题变量）的基础，或使记录有意义所必需的变量。 | 必须始终包含在数据集中，且**任何记录都不能为空**。 |\n| **Exp** (Expected) | 预期变量 — 使记录在特定域上下文中具有可用性所必需的变量。 | 必须包含在数据集中；当数据可用时应填充，当数据未收集/不适用时允许为空；但仍需包含该列，并在 Define-XML 中注明该研究未收集该数据项。 |\n| **Perm** (Permissible) | 允许变量 — 可包含在数据集中的变量。 | 如果研究包含了该变量所代表的数据项，则必须包含该变量（即使为空）并在 Define-XML 中声明；如果研究未收集该数据，则不应包含该变量，也不应在 Define-XML 中声明。 |\n\n**[Source: chapters/ch04_general_assumptions.md — 4.1.5 SDTM Core Designations]**\n\n### 补充说明\n\n- 域假设中说明某个 Permissible 变量\"通常不",
      "usage": {
        "prompt_tokens": 13764,
        "completion_tokens": 458,
        "total_tokens": 14222
      },
      "model": "deepseek/deepseek-chat",
      "answer": "## SDTM 中 Core 设计含义\n\nSDTM 的 Core 列定义了变量在数据集中的三种必需性级别：\n\n| Core 值 | 含义 | 规则 |\n|---------|------|------|\n| **Req** (Required) | 必需变量 — 是识别数据记录（即关键标识变量和主题变量）的基础，或使记录有意义所必需的变量。 | 必须始终包含在数据集中，且**任何记录都不能为空**。 |\n| **Exp** (Expected) | 预期变量 — 使记录在特定域上下文中具有可用性所必需的变量。 | 必须包含在数据集中；当数据可用时应填充，当数据未收集/不适用时允许为空；但仍需包含该列，并在 Define-XML 中注明该研究未收集该数据项。 |\n| **Perm** (Permissible) | 允许变量 — 可包含在数据集中的变量。 | 如果研究包含了该变量所代表的数据项，则必须包含该变量（即使为空）并在 Define-XML 中声明；如果研究未收集该数据，则不应包含该变量，也不应在 Define-XML 中声明。 |\n\n**[Source: chapters/ch04_general_assumptions.md — 4.1.5 SDTM Core Designations]**\n\n### 补充说明\n\n- 域假设中说明某个 Permissible 变量\"通常不使用\"并不禁止使用该变量。\n- 尽管域规范表只列出了 SDTM 中的部分标识符、时序和通用观察类变量，但**所有变量都是 Permissible 的**，除非本实施指南明确限制（见第 2.7 节）或特定域假设另有规定。\n- 当域或数据集规范包含某个变量的 codelist 时，只有属于计划数据收集范围的值才应包含在 Define-XML 中。注意，**空值不应包含在允许值集中**，除非该变量是 Required 的。\n\n**[Source: chapters/ch04_general_assumptions.md — 4.1.5 SDTM Core Designations]**\n**[Source: chapters/ch04_general_assumptions.md — 4.3.3 Controlled Terminology Values]**",
      "elapsed_s": 6.38
    },
    {
      "id": "q13",
      "category": "concept",
      "question": "What is the difference between Topic, Qualifier, and Identifier variable roles?",
      "source_recall": 1.0,
      "source_hits": [
        "model/01_concepts_and_terms.md"
      ],
      "source_misses": [],
      "top5_sources": [
        "model/01_concepts_and_terms.md",
        "model/06_relationship_datasets.md",
        "chapters/ch08_relationships.md",
        "chapters/ch04_general_assumptions.md",
        "domains/ML/assumptions.md"
      ],
      "top5_similarities": [
        0.4934,
        0.4564,
        0.4719,
        0.526,
        0.5228
      ],
      "fact_recall": 1.0,
      "fact_hits": [
        "Topic",
        "Qualifier",
        "Identifier"
      ],
      "fact_misses": [],
      "answer_preview": "## Topic、Qualifier 和 Identifier 变量角色的区别\n\n在 SDTM 中，变量根据其**角色（Role）**进行分类，每种角色描述变量在观察记录中传达的信息类型。以下是三种主要角色的区别：\n\n---\n\n### 1. Identifier Variables（标识符变量）\n\n**用途：** 唯一标识研究、受试者、域和记录。\n\n**典型变量：** STUDYID（研究标识符）、DOMAIN（域缩写）、USUBJID（受试者唯一标识符）、--SEQ（序列号）\n\n**核心特征：**\n- 每个观察记录必须包含标识符变量，以唯一确定该记录\n- 在三大通用观察类（Interventions、Events、Findings）中，标识符变量**必须排在最前面**\n- 例如：`STUDYID = \"STUDY001\"`、`DOMAIN = \"AE\"`、`USUBJID = \"SUBJ-101\"`、`AESEQ = 1`\n\n**[Source: model/01_concepts_and_terms.md]**\n\n---\n\n### 2. Topic Variables（主题变量）\n\n**用途：** 指定观察的**焦点**——即该观察是关于什么的。\n\n**典型变量：**\n- **Interventions 类：** --TRT（治疗名称），如 `CMTRT = \"Aspirin\"",
      "usage": {
        "prompt_tokens": 15520,
        "completion_tokens": 1122,
        "total_tokens": 16642
      },
      "model": "deepseek/deepseek-chat",
      "answer": "## Topic、Qualifier 和 Identifier 变量角色的区别\n\n在 SDTM 中，变量根据其**角色（Role）**进行分类，每种角色描述变量在观察记录中传达的信息类型。以下是三种主要角色的区别：\n\n---\n\n### 1. Identifier Variables（标识符变量）\n\n**用途：** 唯一标识研究、受试者、域和记录。\n\n**典型变量：** STUDYID（研究标识符）、DOMAIN（域缩写）、USUBJID（受试者唯一标识符）、--SEQ（序列号）\n\n**核心特征：**\n- 每个观察记录必须包含标识符变量，以唯一确定该记录\n- 在三大通用观察类（Interventions、Events、Findings）中，标识符变量**必须排在最前面**\n- 例如：`STUDYID = \"STUDY001\"`、`DOMAIN = \"AE\"`、`USUBJID = \"SUBJ-101\"`、`AESEQ = 1`\n\n**[Source: model/01_concepts_and_terms.md]**\n\n---\n\n### 2. Topic Variables（主题变量）\n\n**用途：** 指定观察的**焦点**——即该观察是关于什么的。\n\n**典型变量：**\n- **Interventions 类：** --TRT（治疗名称），如 `CMTRT = \"Aspirin\"`\n- **Events 类：** --TERM（事件术语），如 `AETERM = \"Nausea\"`\n- **Findings 类：** --TESTCD（测试短名）和 --TEST（测试名称），如 `LBTESTCD = \"GLUC\"`、`LBTEST = \"Glucose\"`\n\n**核心特征：**\n- 主题变量定义了该域的核心内容\n- 在三大通用观察类中，主题变量**排在标识符之后、限定符之前**\n- 每个域通常有 1-2 个主题变量\n\n**[Source: model/01_concepts_and_terms.md]**\n\n---\n\n### 3. Qualifier Variables（限定符变量）\n\n**用途：** 提供额外的描述性文本或数值，以描述观察的结果或附加特征。\n\n**限定符变量有 5 个子类：**\n\n| 子类 | 用途 | 示例 |\n|------|------|------|\n| **Grouping Qualifiers**（分组限定符） | 将同一域内的观察分组 | --CAT（类别）、--SCAT（子类别） |\n| **Result Qualifiers**（结果限定符） | 描述与主题变量相关的具体结果（仅 Findings 类） | --ORRES（原始结果）、--STRESC（标准化字符结果）、--STRESN（标准化数值结果） |\n| **Synonym Qualifiers**（同义限定符） | 指定变量的替代名称 | --MODIFY（修改术语）、--DECOD（解码术语）、--TEST（测试名称，作为 --TESTCD 的同义限定符） |\n| **Record Qualifiers**（记录限定符） | 定义整个观察记录的附加属性 | --SEV（严重程度）、AESLIFE（危及生命）、AGE（年龄）、SEX（性别） |\n| **Variable Qualifiers**（变量限定符） | 修改或描述特定变量 | --ORRESU（原始结果单位，限定 --ORRES）、--DOSU（剂量单位，限定 --DOSE） |\n\n**[Source: chapters/ch02_fundamentals.md]**\n\n---\n\n### 关键区别总结\n\n| 维度 | Identifier | Topic | Qualifier |\n|------|-----------|-------|-----------|\n| **核心问题** | \"这是谁的记录？\" | \"这个观察是关于什么的？\" | \"这个观察的细节是什么？\" |\n| **在数据集中的顺序** | 最前面 | 第二组 | 第三组（然后是 Timing） |\n| **是否必须** | 通常为 Required | 通常为 Required | 部分为 Expected/Permitted |\n| **跨域一致性** | STUDYID、USUBJID 等跨域一致 | 每个域有独特的主题变量 | 部分限定符跨域通用（如 --SEV） |\n| **示例** | USUBJID = \"101\" | AETERM = \"Nausea\" | AESEV = \"MILD\" |\n\n**[Source: chapters/ch04_general_assumptions.md — 4.1.4 Order of the Variables]**\n\n---\n\n### 示例：一个完整的 AE 观察记录\n\n| Identifier | Identifier | Identifier | **Topic** | **Qualifier** | **Qualifier** | Timing |\n|-----------|-----------|-----------|-----------|--------------|--------------|--------|\n| STUDYID | DOMAIN | USUBJID | **AETERM** | **AESEV** | **AESER** | AESTDTC |\n| STUDY001 | AE | 101 | **Nausea** | **MILD** | **N** | 2023-01-15 |\n\n在这个例子中：\n- **Identifier** 告诉我们是哪个研究、哪个域、哪个受试者\n- **Topic**（AETERM）告诉我们观察是关于\"恶心\"这个事件\n- **Qualifier**（AESEV、AESER）告诉我们这个事件的严重程度是\"轻度\"、不是\"严重\"事件\n- **Timing** 告诉我们事件发生的时间",
      "elapsed_s": 12.97
    },
    {
      "id": "q14",
      "category": "concept",
      "question": "How should a sponsor create a new custom domain in SDTM?",
      "source_recall": 1.0,
      "source_hits": [
        "chapters/ch02"
      ],
      "source_misses": [],
      "top5_sources": [
        "chapters/ch04_general_assumptions.md",
        "chapters/ch02_fundamentals.md",
        "chapters/ch01_introduction.md",
        "chapters/ch04_general_assumptions.md",
        "chapters/ch03_submitting_data.md"
      ],
      "top5_similarities": [
        0.6011,
        0.4731,
        0.4777,
        0.4946,
        0.4894
      ],
      "fact_recall": 1.0,
      "fact_hits": [
        "observation class"
      ],
      "fact_misses": [],
      "answer_preview": "# 创建自定义 SDTM 域的方法\n\n根据 SDTMIG v3.4，创建自定义域需遵循以下规则：\n\n## 1. 域代码命名规则\n\n- 自定义域代码**建议**以 X、Y 或 Z 开头（首字母），第二位可以是任何字母或数字。这是为了避免与 CDISC 未来定义的域代码冲突。[Source: chapters/ch04_general_assumptions.md §4.1.6]\n- 但以 X/Y/Z 开头**不是强制要求**，只是可选建议。[Source: chapters/ch04_general_assumptions.md §4.1.6]\n- 域代码必须是 2 个字符，首字符限 A-Z，第二字符限 A-Z 或 0-9。[Source: chapters/ch04_general_assumptions.md §4.2.2]\n\n## 2. 确定观察类（General Observation Class）\n\n创建新域的关键步骤是判断数据属于哪一类：[Source: chapters/ch08_relationships.md §8.6.1]\n\n| 观察类 | 定义 |\n|--------|------|\n| **Interventions（干预）** | 对受试者进行的、预期产生生理效应的事情 |\n| **Events（事件）** | 自发发生在受试者身上的事情 |\n| **Fin",
      "usage": {
        "prompt_tokens": 15873,
        "completion_tokens": 551,
        "total_tokens": 16424
      },
      "model": "deepseek/deepseek-chat",
      "answer": "# 创建自定义 SDTM 域的方法\n\n根据 SDTMIG v3.4，创建自定义域需遵循以下规则：\n\n## 1. 域代码命名规则\n\n- 自定义域代码**建议**以 X、Y 或 Z 开头（首字母），第二位可以是任何字母或数字。这是为了避免与 CDISC 未来定义的域代码冲突。[Source: chapters/ch04_general_assumptions.md §4.1.6]\n- 但以 X/Y/Z 开头**不是强制要求**，只是可选建议。[Source: chapters/ch04_general_assumptions.md §4.1.6]\n- 域代码必须是 2 个字符，首字符限 A-Z，第二字符限 A-Z 或 0-9。[Source: chapters/ch04_general_assumptions.md §4.2.2]\n\n## 2. 确定观察类（General Observation Class）\n\n创建新域的关键步骤是判断数据属于哪一类：[Source: chapters/ch08_relationships.md §8.6.1]\n\n| 观察类 | 定义 |\n|--------|------|\n| **Interventions（干预）** | 对受试者进行的、预期产生生理效应的事情 |\n| **Events（事件）** | 自发发生在受试者身上的事情 |\n| **Findings（发现）** | 对受试者进行的测量、检验、评估或检查 |\n\n## 3. 变量命名规则\n\n- 大多数变量名必须以 2 字符域代码为前缀（替换 SDTM 通用变量表中的 \"--\" 前缀）。[Source: chapters/ch04_general_assumptions.md §4.2.2]\n- **例外**（不加域代码前缀）：STUDYID、DOMAIN、USUBJID、VISIT、VISITNUM、VISITDY，以及 DM 域中除 DMDTC 和 DMDY 外的所有变量，还有 RELREC 和 SUPPQUAL 的所有变量。[Source: chapters/ch04_general_assumptions.md §4.2.2]\n\n## 4. 数据集命名\n\n数据集文件名应与域代码一致，例如自定义域代码为 \"XX\"，则数据集文件名为 xx.xpt。[Source: chapters/ch04_general_assumptions.md §4.1.6]\n\n## 5. 提交要求\n\n- 自定义域需要在 Define-XML 文档中描述其元数据。[Source: chapters/ch03_submitting_data.md §3.1]\n- 如果自定义域中没有记录，则不应提交该空数据集，也不应在 Define-XML 中描述。[Source: chapters/ch03_submitting_data.md §3.2]",
      "elapsed_s": 7.7
    },
    {
      "id": "q15",
      "category": "concept",
      "question": "What are the three SDTM Core designation categories for variables, and what are the rules for handling a Permissible variable when a study did not collect the corresponding data item?",
      "source_recall": 1.0,
      "source_hits": [
        "chapters/ch04_general_assumptions.md"
      ],
      "source_misses": [],
      "top5_sources": [
        "chapters/ch04_general_assumptions.md",
        "chapters/ch01_introduction.md",
        "chapters/ch04_general_assumptions.md",
        "chapters/ch04_general_assumptions.md",
        "model/01_concepts_and_terms.md"
      ],
      "top5_similarities": [
        0.7806,
        0.6228,
        0.5995,
        0.5964,
        0.6896
      ],
      "fact_recall": 1.0,
      "fact_hits": [
        "Req",
        "Exp",
        "Perm"
      ],
      "fact_misses": [],
      "answer_preview": "根据 SDTMIG v3.4，变量的三个 Core 类别及其规则如下：\n\n### 三个 Core 类别\n\n| Core 值 | 含义 | 规则 |\n|---------|------|------|\n| **Req** (Required) | 对数据记录识别或使记录有意义所必需的变量 | 必须始终包含在数据集中，且任何记录都不能为空 |\n| **Exp** (Expected) | 预期在大多数情况下会存在的变量 | 必须包含在数据集中；当数据可用时应填充，未收集/不适用时允许为空；但仍需包含该列，并在 Define-XML 中注明未收集该数据项 |\n| **Perm** (Permissible) | 可能包含在数据集中的变量 | 见下方详细规则 |\n\n**[Source: chapters/ch04_general_assumptions.md -- 4.1.5 SDTM Core Designations]**\n\n---\n\n### Permissible 变量的处理规则\n\n当研究**未收集**对应数据项时，Permissible 变量的处理规则如下：\n\n> **如果研究未包含某个 Permissible 变量所代表的数据项，则该变量不应包含在 SDTM 数据集中，也不应在 Define-XML 文档中声明。**\n\n**[Source: chapters/ch04_gener",
      "usage": {
        "prompt_tokens": 16196,
        "completion_tokens": 307,
        "total_tokens": 16503
      },
      "model": "deepseek/deepseek-chat",
      "answer": "根据 SDTMIG v3.4，变量的三个 Core 类别及其规则如下：\n\n### 三个 Core 类别\n\n| Core 值 | 含义 | 规则 |\n|---------|------|------|\n| **Req** (Required) | 对数据记录识别或使记录有意义所必需的变量 | 必须始终包含在数据集中，且任何记录都不能为空 |\n| **Exp** (Expected) | 预期在大多数情况下会存在的变量 | 必须包含在数据集中；当数据可用时应填充，未收集/不适用时允许为空；但仍需包含该列，并在 Define-XML 中注明未收集该数据项 |\n| **Perm** (Permissible) | 可能包含在数据集中的变量 | 见下方详细规则 |\n\n**[Source: chapters/ch04_general_assumptions.md -- 4.1.5 SDTM Core Designations]**\n\n---\n\n### Permissible 变量的处理规则\n\n当研究**未收集**对应数据项时，Permissible 变量的处理规则如下：\n\n> **如果研究未包含某个 Permissible 变量所代表的数据项，则该变量不应包含在 SDTM 数据集中，也不应在 Define-XML 文档中声明。**\n\n**[Source: chapters/ch04_general_assumptions.md -- 4.1.5 SDTM Core Designations]**\n\n这与 Required 和 Expected 变量的处理方式不同——后两者即使数据未收集也必须保留空列并在 Define-XML 中说明。",
      "elapsed_s": 4.54
    },
    {
      "id": "q35",
      "category": "concept",
      "question": "What is Controlled Terminology (CT) in SDTM and how does it constrain the values that variables can contain?",
      "source_recall": 1.0,
      "source_hits": [
        "chapters/ch04"
      ],
      "source_misses": [],
      "top5_sources": [
        "chapters/ch04_general_assumptions.md",
        "chapters/ch04_general_assumptions.md",
        "model/01_concepts_and_terms.md",
        "model/01_concepts_and_terms.md",
        "chapters/ch10_appendices.md"
      ],
      "top5_similarities": [
        0.607,
        0.6771,
        0.6231,
        0.5926,
        0.6137
      ],
      "fact_recall": 0.0,
      "fact_hits": [],
      "fact_misses": [
        "codelist",
        "Controlled Terms"
      ],
      "answer_preview": "## SDTM 中的受控术语（Controlled Terminology, CT）及其对变量值的约束\n\n### 什么是受控术语（CT）\n\n受控术语（Controlled Terminology, CT）是 CDISC 维护的一套标准化值列表，用于约束 SDTM 数据集中特定变量的允许值。CT 由 CDISC 受控术语团队集中管理，支持所有 CDISC 基础标准（SDTM、CDASH、ADaM、SEND）以及疾病/治疗领域标准 **[Source: chapters/ch10_appendices.md]**。\n\n### CT 如何约束变量值\n\n#### 1. 变量定义中的 CT 表示方式\n\n在 SDTMIG v3.3 及之后版本中，受控术语在变量定义的\"受控术语、编码列表或格式\"列中以以下方式表示 **[Source: chapters/ch04_general_assumptions.md — 4.3.1]**：\n\n| 表示方式 | 含义 | 示例 |\n|---------|------|------|\n| 单个星号 (`*`) | CDISC 受控术语当前不可用，但预计将来可能开发 | — |\n| 单个适用值 | 变量只有唯一允许值 | `DOMAIN` 变量的值如 `\"PR\"` |\n| CDISC 编码列表名称（超链接） | 引用 CDISC 发布的编码列表 | `(NY)",
      "usage": {
        "prompt_tokens": 15668,
        "completion_tokens": 1010,
        "total_tokens": 16678
      },
      "model": "deepseek/deepseek-chat",
      "answer": "## SDTM 中的受控术语（Controlled Terminology, CT）及其对变量值的约束\n\n### 什么是受控术语（CT）\n\n受控术语（Controlled Terminology, CT）是 CDISC 维护的一套标准化值列表，用于约束 SDTM 数据集中特定变量的允许值。CT 由 CDISC 受控术语团队集中管理，支持所有 CDISC 基础标准（SDTM、CDASH、ADaM、SEND）以及疾病/治疗领域标准 **[Source: chapters/ch10_appendices.md]**。\n\n### CT 如何约束变量值\n\n#### 1. 变量定义中的 CT 表示方式\n\n在 SDTMIG v3.3 及之后版本中，受控术语在变量定义的\"受控术语、编码列表或格式\"列中以以下方式表示 **[Source: chapters/ch04_general_assumptions.md — 4.3.1]**：\n\n| 表示方式 | 含义 | 示例 |\n|---------|------|------|\n| 单个星号 (`*`) | CDISC 受控术语当前不可用，但预计将来可能开发 | — |\n| 单个适用值 | 变量只有唯一允许值 | `DOMAIN` 变量的值如 `\"PR\"` |\n| CDISC 编码列表名称（超链接） | 引用 CDISC 发布的编码列表 | `(NY)` 表示 Yes/No 编码列表 |\n| 外部术语系统简称 | 引用外部标准术语 | `\"MedDRA\"`、`\"ISO 3166-1 alpha-3\"` |\n\n#### 2. 对变量值的具体约束\n\n**（1）必须使用 CT 中的值**\n\n当变量关联了 CDISC 编码列表时，变量的值必须从该编码列表中选择。例如：\n- `AESER`（严重不良事件标志）的值必须来自 `(NY)` 编码列表（允许值：`Y` 或 `N`）\n- `--TESTCD` 和 `--TEST` 的值受受控术语约束 **[Source: chapters/ch04_general_assumptions.md — 4.2.1.1]**\n- `TRTESTCD`/`TRTEST` 的值发布为受控术语 **[Source: domains/TR/assumptions.md — item_3]**\n\n**（2）大小写必须与源编码列表一致**\n\n来自受控术语的术语应使用源编码列表或编码系统中出现的大小写形式 **[Source: chapters/ch04_general_assumptions.md — 4.3.2]**。\n\n**（3）Define-XML 中必须包含 CT 信息**\n\n受控术语或其引用应包含在 Define-XML 文档中。研究中使用的所有允许值都应包含在内，无论它们是否在提交的数据中出现 **[Source: chapters/ch04_general_assumptions.md — 4.3.3]**。\n\n**（4）空值（null）的处理**\n\n空值不应包含在允许值集合中。对于\"Required\"变量，空值是隐含不允许的；对于其他变量，空值是隐含允许的 **[Source: chapters/ch04_general_assumptions.md — 4.3.3]**。\n\n#### 3. 变量长度的约束\n\n对于使用受控术语的变量，其长度可以设置为最长术语的长度 **[Source: chapters/ch04_general_assumptions.md — 4.2.9]**。例如：\n- `--TESTCD` 和 `IDVAR` 的长度始终不超过 8\n- 标志变量的长度始终为 1\n\n#### 4. 编码列表的扩展性\n\n- 对于某些参数（如 `TSVAL`），接收方可以指定自己的受控术语，这些术语可能替换 CDISC 受控术语 **[Source: domains/TS/assumptions.md — item_8]**\n- 当 CDISC 受控术语不可用时（标记为 `*`），赞助商可以使用自己的受控术语\n\n### 受控术语的管理与获取\n\n- CDISC 受控术语由 NCI 企业词汇服务（EVS）通过 CDISC 术语网站发布 **[Source: chapters/ch10_appendices.md]**\n- 新/修改的术语有 3 个月开发期，随后是季度公开评审意见期和发布 **[Source: chapters/ch10_appendices.md]**\n- 最新术语包可在 https://www.cdisc.org/standards/terminology/controlled-terminology 获取 **[Source: chapters/ch01_introduction.md]**\n\n### 总结\n\n受控术语通过为特定变量提供标准化的允许值集合来约束 SDTM 数据。这种约束确保了跨研究、跨赞助商的数据一致性，使监管机构能够更有效地审查和比较数据。赞助商必须在 Define-XML 中声明所使用的受控术语，并确保数据值严格遵循这些术语。",
      "elapsed_s": 11.28
    },
    {
      "id": "q36",
      "category": "concept",
      "question": "What are the timing variables in SDTM (such as --DTC, --STDTC, --ENDTC) and how are they structured across domains?",
      "source_recall": 1.0,
      "source_hits": [
        "chapters/ch04"
      ],
      "source_misses": [],
      "top5_sources": [
        "chapters/ch04_general_assumptions.md",
        "model/01_concepts_and_terms.md",
        "chapters/ch04_general_assumptions.md",
        "model/02_observation_classes.md",
        "domains/BE/assumptions.md"
      ],
      "top5_similarities": [
        0.6533,
        0.7001,
        0.6573,
        0.6517,
        0.6647
      ],
      "fact_recall": 1.0,
      "fact_hits": [
        "DTC",
        "STDTC",
        "ENDTC",
        "Timing"
      ],
      "fact_misses": [],
      "answer_preview": "## SDTM 中的时间变量（Timing Variables）及其跨域结构\n\n### 一、核心时间变量\n\nSDTM 定义了以下主要时间变量，适用于三大通用观察类（Interventions、Events、Findings）的所有域：\n\n| 变量 | 标签 | 类型 | 格式 | 说明 |\n|------|------|------|------|------|\n| **--DTC** | Date/Time of Collection | Char | ISO 8601 | 观察的主要日期/时间 |\n| **--STDTC** | Start Date/Time of Observation | Char | ISO 8601 | **不在 Findings 类域中使用** |\n| **--ENDTC** | End Date/Time of Observation | Char | ISO 8601 | |\n\n**[Source: model/02_observation_classes.md — 3.1.5 Timing Variables for All Classes]**\n\n### 二、跨域结构规则\n\n#### 2.1 Findings 类的特殊规则\n\n在 Findings 类域中，**--STDTC 不得使用**。规则如下：\n\n| 采集类型 | --DTC | --S",
      "usage": {
        "prompt_tokens": 15634,
        "completion_tokens": 1390,
        "total_tokens": 17024
      },
      "model": "deepseek/deepseek-chat",
      "answer": "## SDTM 中的时间变量（Timing Variables）及其跨域结构\n\n### 一、核心时间变量\n\nSDTM 定义了以下主要时间变量，适用于三大通用观察类（Interventions、Events、Findings）的所有域：\n\n| 变量 | 标签 | 类型 | 格式 | 说明 |\n|------|------|------|------|------|\n| **--DTC** | Date/Time of Collection | Char | ISO 8601 | 观察的主要日期/时间 |\n| **--STDTC** | Start Date/Time of Observation | Char | ISO 8601 | **不在 Findings 类域中使用** |\n| **--ENDTC** | End Date/Time of Observation | Char | ISO 8601 | |\n\n**[Source: model/02_observation_classes.md — 3.1.5 Timing Variables for All Classes]**\n\n### 二、跨域结构规则\n\n#### 2.1 Findings 类的特殊规则\n\n在 Findings 类域中，**--STDTC 不得使用**。规则如下：\n\n| 采集类型 | --DTC | --STDTC | --ENDTC |\n|---------|-------|---------|---------|\n| 单点采集 | X | | |\n| 区间采集 | X | | X |\n\n**注意：** --STDTC 不应出现在 Findings 类域中。\n\n**[Source: chapters/ch04_general_assumptions.md — 4.4.8 Date and Time Reported in a Domain Based on Findings]**\n\n#### 2.2 Events 和 Interventions 类的规则\n\n在 Events 和 Interventions 类域中：\n- **--STDTC**：记录事件或干预的开始日期/时间\n- **--ENDTC**：记录事件或干预的结束日期/时间\n- **--DTC**：记录数据采集的日期/时间\n\n**[Source: chapters/ch04_general_assumptions.md — 4.4.8]**\n\n#### 2.3 特殊域的时间变量规则\n\n**Biospecimen Events (BE) 域：**\n- BESTDTC 和 BEENDTC 记录事件的开始和结束日期/时间\n- BEDTC 不记录数据采集日期，而是记录**标本采集日期**（与 Findings 类标本相关域保持一致）\n- 如果结束日期与开始日期相同，BEENDTC 为空\n\n**[Source: domains/BE/assumptions.md — item_6]**\n\n**Disposition (DS) 域：**\n- DSSTDTC 是预期的，用于记录处置事件的日期/时间\n- 处置事件没有结束日期（事件发生在单一时间点）\n- EPOCH 基于 DSSTDTC\n\n**[Source: domains/DS/assumptions.md — item_4]**\n\n### 三、EPOCH 变量的跨域规则\n\n| 域类 | EPOCH 基于的变量 |\n|------|-----------------|\n| **Findings** | --DTC（测试日期或标本采集日期） |\n| **Interventions** | --STDTC（干预开始日期） |\n| **Events** | --STDTC（事件开始日期） |\n\n**例外情况：** 对于区间标本采集（开始于一个 Epoch 但结束于另一个），--ENDTC 可能是更合适的 EPOCH 依据。\n\n**[Source: chapters/ch04_general_assumptions.md — 4.1.3.1 EPOCH Variable Guidance]**\n\n### 四、ISO 8601 格式要求\n\n所有 DTC 变量使用 ISO 8601 扩展格式：\n\n```\nYYYY-MM-DDThh:mm:ss(.n+)?(((+|-)hh:mm)|Z)?\n```\n\n- 日期和时间之间用 \"T\" 分隔\n- 不允许空格\n- 数据类型为 **字符型（Char）**\n- 支持完整日期/时间、部分日期/时间或不完整日期/时间\n\n**[Source: chapters/ch04_general_assumptions.md — 4.4.1 Formats for Date/Time Variables]**\n\n### 五、其他时间变量\n\n除上述三个核心变量外，SDTM 还定义了以下时间变量（共 48 个）：\n\n**访视和 Epoch 变量：** VISITNUM, VISIT, VISITDY, TAETORD, EPOCH\n\n**研究日变量：** --DY, --STDY, --ENDY, --NOMDY, --NOMLBL, --RPDY, --RPSTDY, --RPENDY, --XDY, --XSTDY, --XENDY, --CHDY, --CHSTDY, --CHENDY, --DUR\n\n**时间点变量：** --TPT, --TPTNUM, --ELTM, --TPTREF, --RFTDTC\n\n**相对时间变量：** --STRF, --ENRF, --EVLINT, --EVINTX, --STRTPT, --STTPT, --ENRTPT, --ENTPT\n\n**[Source: model/02_observation_classes.md — 3.1.5 Timing Variables for All Classes]**\n\n### 六、研究日（Study Day）的推导规则\n\n- RFSTDTC（参考开始日期）定义为研究日 1\n- RFSTDTC 之后的日期：DY = 日期部分(--DTC) − 日期部分(RFSTDTC) + 1\n- RFSTDTC 之前的日期：DY = 日期部分(--DTC) − 日期部分(RFSTDTC)（无研究日 0）\n- 部分日期不得用于推导研究日\n\n**[Source: chapters/ch04_general_assumptions.md — 4.4.4 Use of the Study Day Variables]**\n\n### 七、总结：跨域时间变量结构\n\n| 域类 | --DTC 含义 | --STDTC | --ENDTC | EPOCH 依据 |\n|------|-----------|---------|---------|-----------|\n| **Interventions** | 数据采集日期 | 干预开始日期 | 干预结束日期 | --STDTC |\n| **Events** | 数据采集日期 | 事件开始日期 | 事件结束日期 | --STDTC |\n| **Findings** | 标本/测试采集日期 | **不使用** | 区间采集结束日期 | --DTC |\n| **BE（特殊 Events）** | 标本采集日期 | 事件开始日期 | 事件结束日期 | --STDTC |\n| **DS（特殊 Events）** | — | 处置事件日期 | **不使用** | DSSTDTC |",
      "elapsed_s": 12.32
    },
    {
      "id": "q37",
      "category": "concept",
      "question": "What are the Special-Purpose datasets in SDTM and which domains fall into this category?",
      "source_recall": 1.0,
      "source_hits": [
        "model/03_special_purpose_domains.md"
      ],
      "source_misses": [],
      "top5_sources": [
        "model/01_concepts_and_terms.md",
        "model/02_observation_classes.md",
        "model/03_special_purpose_domains.md",
        "chapters/ch04_general_assumptions.md",
        "chapters/ch04_general_assumptions.md"
      ],
      "top5_similarities": [
        0.666,
        0.6624,
        0.657,
        0.5978,
        0.6636
      ],
      "fact_recall": 1.0,
      "fact_hits": [
        "Special-Purpose",
        "DM",
        "CO",
        "SE"
      ],
      "fact_misses": [],
      "answer_preview": "根据 SDTM 模型的定义，Special-Purpose（特殊用途）数据集是除三大通用观察类（Interventions、Events、Findings）之外的一组具有特定标准化结构的数据集，用于表示研究中额外的重要信息 **[Source: model/03_special_purpose_domains.md]**。\n\n以下域属于 Special-Purpose 类别：\n\n| 域代码 | 域名 | 来源 |\n|--------|------|------|\n| CO | Comments | **[Source: domains/CO/assumptions.md]** |\n| DM | Demographics | **[Source: model/03_special_purpose_domains.md]** |\n| SE | Subject Elements | **[Source: chapters/ch03_submitting_data.md]** |\n| SM | Subject Disease Milestones | **[Source: chapters/ch03_submitting_data.md]** |\n| SV | Subject Visits | **[Source: chapters/ch03_submitting_data.md]** |",
      "usage": {
        "prompt_tokens": 16603,
        "completion_tokens": 289,
        "total_tokens": 16892
      },
      "model": "deepseek/deepseek-chat",
      "answer": "根据 SDTM 模型的定义，Special-Purpose（特殊用途）数据集是除三大通用观察类（Interventions、Events、Findings）之外的一组具有特定标准化结构的数据集，用于表示研究中额外的重要信息 **[Source: model/03_special_purpose_domains.md]**。\n\n以下域属于 Special-Purpose 类别：\n\n| 域代码 | 域名 | 来源 |\n|--------|------|------|\n| CO | Comments | **[Source: domains/CO/assumptions.md]** |\n| DM | Demographics | **[Source: model/03_special_purpose_domains.md]** |\n| SE | Subject Elements | **[Source: chapters/ch03_submitting_data.md]** |\n| SM | Subject Disease Milestones | **[Source: chapters/ch03_submitting_data.md]** |\n| SV | Subject Visits | **[Source: chapters/ch03_submitting_data.md]** |\n\n**注意：** 关系数据集（如 RELREC、SUPPQUAL、RELSPEC、RELSUB）在 SDTM 模型中被归类为\"Relationship Datasets\"（关系数据集），而非 Special-Purpose 域 **[Source: model/06_relationship_datasets.md]**。同样，DI（Device Identifiers）在 SDTM v1.7 之后被重新归类为研究参考数据集（Study Reference Dataset），而非 Special-Purpose 域 **[Source: domains/DI/assumptions.md]**。",
      "elapsed_s": 4.16
    },
    {
      "id": "q38",
      "category": "concept",
      "question": "How are SDTM domain abbreviation codes assigned? What are the rules for the two-character domain code?",
      "source_recall": 1.0,
      "source_hits": [
        "chapters/ch02"
      ],
      "source_misses": [],
      "top5_sources": [
        "chapters/ch04_general_assumptions.md",
        "domains/SV/spec.md",
        "domains/FT/spec.md",
        "domains/EX/spec.md",
        "domains/IE/spec.md"
      ],
      "top5_similarities": [
        0.6759,
        0.6703,
        0.6691,
        0.6691,
        0.6689
      ],
      "fact_recall": 1.0,
      "fact_hits": [
        "two-character",
        "DOMAIN"
      ],
      "fact_misses": [],
      "answer_preview": "## SDTM 域缩写代码的分配规则\n\n### 1. 基本规则\n\n每个 SDTM 域由一个唯一的 **2 字符代码**（DOMAIN 变量值）标识，该代码在以下 4 个地方使用：\n1. 作为数据集名称\n2. 作为该数据集中 DOMAIN 变量的值\n3. 作为该数据集中大多数变量名的前缀\n4. 作为关系表中 RDOMAIN 变量的值\n\n**[Source: chapters/ch02_fundamentals.md — §2.2 Datasets and Domains]**\n\n### 2. 字符限制\n\n- **第一个字符**：仅限 A-Z（大写字母）\n- **第二个字符**：仅限 A-Z 或 0-9（大写字母或数字）\n- **不允许使用其他字符**\n\n此限制是为了兼容 SAS v5 传输文件格式以及电子通用技术文档（eCTD）的文件命名要求。\n\n**[Source: chapters/ch04_general_assumptions.md — §4.2.2 Two-character Domain Identifier]**\n\n### 3. 标准域代码\n\n标准域代码定义在 **CDISC 受控术语——Domain Abbreviation codelist（C66734）** 中，可在以下网址查阅：\nhttps://www.cancer.gov/research/resources",
      "usage": {
        "prompt_tokens": 10885,
        "completion_tokens": 661,
        "total_tokens": 11546
      },
      "model": "deepseek/deepseek-chat",
      "answer": "## SDTM 域缩写代码的分配规则\n\n### 1. 基本规则\n\n每个 SDTM 域由一个唯一的 **2 字符代码**（DOMAIN 变量值）标识，该代码在以下 4 个地方使用：\n1. 作为数据集名称\n2. 作为该数据集中 DOMAIN 变量的值\n3. 作为该数据集中大多数变量名的前缀\n4. 作为关系表中 RDOMAIN 变量的值\n\n**[Source: chapters/ch02_fundamentals.md — §2.2 Datasets and Domains]**\n\n### 2. 字符限制\n\n- **第一个字符**：仅限 A-Z（大写字母）\n- **第二个字符**：仅限 A-Z 或 0-9（大写字母或数字）\n- **不允许使用其他字符**\n\n此限制是为了兼容 SAS v5 传输文件格式以及电子通用技术文档（eCTD）的文件命名要求。\n\n**[Source: chapters/ch04_general_assumptions.md — §4.2.2 Two-character Domain Identifier]**\n\n### 3. 标准域代码\n\n标准域代码定义在 **CDISC 受控术语——Domain Abbreviation codelist（C66734）** 中，可在以下网址查阅：\nhttps://www.cancer.gov/research/resources/terminology/cdisc\n\n**[Source: chapters/ch04_general_assumptions.md — §4.1.6 Additional Guidance on Dataset Naming]**\n\n### 4. 自定义域代码\n\n为避免与 CDISC 未来定义的标准域代码冲突，**以 X、Y、Z 开头的域代码**被保留用于创建自定义域。第二个位置可以使用任何字母或数字。\n\n> **注意**：使用 X、Y 或 Z 开头的代码是可选的，并非自定义域的必要条件。\n\n**[Source: chapters/ch04_general_assumptions.md — §4.1.6 Additional Guidance on Dataset Naming]**\n\n### 5. 变量名前缀规则\n\n大多数变量名以 2 字符域标识符作为前缀（例如 AE 域中的 AETERM、AESER）。以下变量是**例外**，不使用域标识符前缀：\n\n- **必需标识符**：STUDYID、DOMAIN、USUBJID\n- **常用分组和合并键**：VISIT、VISITNUM、VISITDY\n- **DM 域**中除 DMDTC 和 DMDY 之外的所有变量\n- **RELREC 和 SUPPQUAL** 中的所有变量\n- **Comments 和 Trial Design 数据集**中的部分变量\n\n而 `--SEQ` 以及可选的标识符 `--GRPID` 和 `--REFID` 则**需要**使用域前缀，因为它们可能用作跨域关联观察的键。\n\n**[Source: chapters/ch04_general_assumptions.md — §4.2.2 Two-character Domain Identifier]**\n\n### 6. 特殊域的代码约束\n\n某些域的代码是固定的，例如 TM（Trial Disease Milestones）域的 DOMAIN 值**必须为 \"TM\"**。\n\n**[Source: domains/TM/spec.md — DOMAIN]**",
      "elapsed_s": 7.58
    },
    {
      "id": "q39",
      "category": "concept",
      "question": "What is the Findings About observation class and how does it differ from the standard Findings class?",
      "source_recall": 1.0,
      "source_hits": [
        "model/02_observation_classes.md"
      ],
      "source_misses": [],
      "top5_sources": [
        "domains/BS/spec.md",
        "chapters/ch08_relationships.md",
        "domains/CP/spec.md",
        "model/02_observation_classes.md",
        "domains/CV/spec.md"
      ],
      "top5_similarities": [
        0.7123,
        16.7017,
        0.7123,
        15.7114,
        0.7123
      ],
      "fact_recall": 1.0,
      "fact_hits": [
        "Findings About",
        "FAOBJ"
      ],
      "fact_misses": [],
      "answer_preview": "## Findings About 观察类及其与标准 Findings 类的区别\n\n### Findings About 观察类定义\n\nFindings About 是 Findings（发现）观察类的一个**子类型**（subtype），用于记录与 Interventions（干预）或 Events（事件）观察类中观察结果相关的发现。**[Source: model/02_observation_classes.md]**\n\n### 核心区别\n\n| 维度 | 标准 Findings 类 | Findings About 子类型 |\n|------|-----------------|----------------------|\n| **观察对象** | 直接对受试者进行的测量、测试、评估或检查（如实验室检查、生命体征） | 对某个事件或干预的某个方面进行的评估或测量 |\n| **关键变量** | 使用 `--TESTCD`/`--TEST` 作为主题变量 | 除 `--TESTCD`/`--TEST` 外，**必须**使用 `--OBJ`（观察对象）变量 |\n| **适用场景** | 计划性评估（如每次访视的实验室检查） | 对已有事件或干预记录的属性进行额外评估 |\n\n### 关键变量：`--OBJ`（观察对象）\n\n`--OBJ` 变量是 Findings About 独有的",
      "usage": {
        "prompt_tokens": 13862,
        "completion_tokens": 689,
        "total_tokens": 14551
      },
      "model": "deepseek/deepseek-chat",
      "answer": "## Findings About 观察类及其与标准 Findings 类的区别\n\n### Findings About 观察类定义\n\nFindings About 是 Findings（发现）观察类的一个**子类型**（subtype），用于记录与 Interventions（干预）或 Events（事件）观察类中观察结果相关的发现。**[Source: model/02_observation_classes.md]**\n\n### 核心区别\n\n| 维度 | 标准 Findings 类 | Findings About 子类型 |\n|------|-----------------|----------------------|\n| **观察对象** | 直接对受试者进行的测量、测试、评估或检查（如实验室检查、生命体征） | 对某个事件或干预的某个方面进行的评估或测量 |\n| **关键变量** | 使用 `--TESTCD`/`--TEST` 作为主题变量 | 除 `--TESTCD`/`--TEST` 外，**必须**使用 `--OBJ`（观察对象）变量 |\n| **适用场景** | 计划性评估（如每次访视的实验室检查） | 对已有事件或干预记录的属性进行额外评估 |\n\n### 关键变量：`--OBJ`（观察对象）\n\n`--OBJ` 变量是 Findings About 独有的变量，用于描述被测量的**事件或干预的名称**。在 FA 域中，`FATESTCD` 和 `FAOBJ` 必须同时填充才能完整描述观察的主题。**[Source: model/02_observation_classes.md]**\n\n### 何时使用 Findings About（三条标准）\n\n根据 SDTMIG v3.4 §6.4.1，以下情况应使用 Findings About 结构：\n\n1. **与关联事件或干预具有不同时间点的数据**：例如，不良事件的症状在不同时间点重复评估，而非对整个事件做一次性评估。**[Source: domains/FA/assumptions.md]**\n\n2. **需要多个变量才能表示的观察**：当对事件或干预的某个观察需要超过 1 个变量来表示，无法作为补充限定符（supplemental qualifier）添加到父记录中时。**[Source: domains/FA/assumptions.md]**\n\n3. **指示预设 AE 发生的数据或信息**：用于记录预设不良事件的发生情况。**[Source: domains/FA/assumptions.md]**\n\n### 示例\n\n| FATESTCD | FATEST | FAOBJ | FASTRESC |\n|----------|--------|-------|----------|\n| OCCUR | Occurrence Indicator | HEADACHE | Y |\n| SEV | Severity/Intensity | HEADACHE | MILD |\n| TOXGR | Toxicity Grade | HEADACHE | 1 |\n\n### 不应使用的限定符\n\n在 FA 域中，以下限定符通常不应使用：`--BODSYS`、`--MODIFY`、`--SEV`、`--TOXGR`。**[Source: domains/FA/assumptions.md]**\n\n### 总结\n\n简而言之，**标准 Findings 类**回答\"受试者的测量值是什么\"，而 **Findings About** 回答\"关于某个事件或干预的某个方面的测量值是什么\"。Findings About 通过 `--OBJ` 变量明确指向被评估的事件或干预，从而建立与 Events 或 Interventions 域的关联。",
      "elapsed_s": 8.55
    },
    {
      "id": "q40",
      "category": "concept",
      "question": "What is the difference between collected data and derived data in SDTM, and how is the origin of a variable value indicated?",
      "source_recall": 1.0,
      "source_hits": [
        "chapters/ch04"
      ],
      "source_misses": [],
      "top5_sources": [
        "chapters/ch04_general_assumptions.md",
        "model/01_concepts_and_terms.md",
        "chapters/ch01_introduction.md",
        "model/06_relationship_datasets.md",
        "chapters/ch04_general_assumptions.md"
      ],
      "top5_similarities": [
        0.641,
        0.6331,
        0.5626,
        0.5606,
        0.5626
      ],
      "fact_recall": 1.0,
      "fact_hits": [
        "Collected",
        "Derived",
        "Origin"
      ],
      "fact_misses": [],
      "answer_preview": "## SDTM 中收集数据与衍生数据的区别及变量值来源的标识方式\n\n### 收集数据 (Collected Data) 与衍生数据 (Derived Data) 的区别\n\n在 SDTM 中，数据的来源（Origin）决定了数据是如何产生的：\n\n| 数据类型 | 定义 | 示例 |\n|---------|------|------|\n| **收集数据 (Collected)** | 直接从 CRF、供应商或设备采集的数据 | 实验室检测结果、不良事件描述、生命体征测量值 |\n| **衍生数据 (Derived)** | 通过计算、转换或逻辑规则从其他数据推导出的数据 | 总分计算、年龄计算、标志位设置 |\n\n**关键规则：**\n\n1. **中央实验室/供应商的数据视为收集数据**——即使该数据是由中央实验室根据其程序计算得出的，仍被视为收集数据而非衍生数据。**[Source: domains/LB/assumptions.md — item_6]**\n\n2. **QRS 问卷中的总分/小计**：\n   - CRF 上列出的总分 → 视为收集数据\n   - 未列在 CRF 上但记录在仪器手册/参考文献中的总分 → 视为收集数据\n   - 由申办方操作性地推导的总分 → 应设置 `--DRVFL = \"Y\"` 标记\n   - 由研究者写在 CRF 上的总分 → 视为收集数据，不标记 `",
      "usage": {
        "prompt_tokens": 17386,
        "completion_tokens": 861,
        "total_tokens": 18247
      },
      "model": "deepseek/deepseek-chat",
      "answer": "## SDTM 中收集数据与衍生数据的区别及变量值来源的标识方式\n\n### 收集数据 (Collected Data) 与衍生数据 (Derived Data) 的区别\n\n在 SDTM 中，数据的来源（Origin）决定了数据是如何产生的：\n\n| 数据类型 | 定义 | 示例 |\n|---------|------|------|\n| **收集数据 (Collected)** | 直接从 CRF、供应商或设备采集的数据 | 实验室检测结果、不良事件描述、生命体征测量值 |\n| **衍生数据 (Derived)** | 通过计算、转换或逻辑规则从其他数据推导出的数据 | 总分计算、年龄计算、标志位设置 |\n\n**关键规则：**\n\n1. **中央实验室/供应商的数据视为收集数据**——即使该数据是由中央实验室根据其程序计算得出的，仍被视为收集数据而非衍生数据。**[Source: domains/LB/assumptions.md — item_6]**\n\n2. **QRS 问卷中的总分/小计**：\n   - CRF 上列出的总分 → 视为收集数据\n   - 未列在 CRF 上但记录在仪器手册/参考文献中的总分 → 视为收集数据\n   - 由申办方操作性地推导的总分 → 应设置 `--DRVFL = \"Y\"` 标记\n   - 由研究者写在 CRF 上的总分 → 视为收集数据，不标记 `--DRVFL`\n   - 从中央供应商收到的总分 → 放入 `--ORRES`，`--DRVFL` 留空 **[Source: domains/FT/assumptions.md — item_4]**\n\n3. **混合来源的处理**：当同一变量中同时包含收集值和衍生值时（如 QS 域中既有单个问题得分又有总分），必须在 Define-XML 中使用值级元数据（value-level metadata）来描述来源。**[Source: chapters/ch04_general_assumptions.md — 4.1.8.2]**\n\n### 变量值来源的标识方式\n\n变量值的来源通过 **Define-XML 文件中的 Origin 元数据** 来标识。**[Source: chapters/ch04_general_assumptions.md — 4.1.8.1]**\n\n**Origin 的用途**：明确告知审评员数据来源，确保可追溯性。\n\n| Origin 值 | 含义 | 要求 |\n|-----------|------|------|\n| **Collected** | 从 CRF、供应商或设备采集 | 应可追溯到带注释的 CRF |\n| **Derived** | 通过算法推导得出 | 应可追溯到推导算法 |\n| **Assigned** | 由系统或人工分配 | 应说明分配依据 |\n\n**Origin 元数据的使用规则：**\n\n1. **变量级 Origin**：如果某个变量的所有值都来自同一来源，则在变量级声明 Origin。\n2. **值级 Origin**：如果同一变量中既有收集值又有衍生值（如 QS 域），则必须在 Define-XML 中使用值级元数据分别描述。**[Source: chapters/ch04_general_assumptions.md — 4.1.8.2]**\n\n**在 SUPP-- 数据集中的 Origin 标识**：\n\n在 Supplemental Qualifiers 数据集中，`QORIG` 变量专门用于标识补充变量值的来源，允许值为 \"CRF\"、\"Assigned\"、\"Derived\" 等。**[Source: chapters/ch08_relationships.md — 8.4.1]**\n\n### 总结\n\n| 维度 | 收集数据 | 衍生数据 |\n|------|---------|---------|\n| **来源** | CRF、供应商、设备 | 计算、转换、逻辑规则 |\n| **Origin 值** | Collected | Derived |\n| **追溯要求** | 注释 CRF | 推导算法文档 |\n| **标记变量** | 无特殊标记 | `--DRVFL = \"Y\"`（QRS 域） |\n| **Define-XML 声明** | 变量级或值级元数据 | 变量级或值级元数据 |",
      "elapsed_s": 11.29
    },
    {
      "id": "q41",
      "category": "concept",
      "question": "What are the Trial Design Model datasets in SDTM and what kind of study-level information do they capture?",
      "source_recall": 1.0,
      "source_hits": [
        "model/05_study_level_data.md"
      ],
      "source_misses": [],
      "top5_sources": [
        "model/01_concepts_and_terms.md",
        "chapters/ch04_general_assumptions.md",
        "model/05_study_level_data.md",
        "domains/TA/assumptions.md",
        "domains/TI/assumptions.md"
      ],
      "top5_similarities": [
        0.6589,
        0.66,
        0.8164,
        0.6195,
        0.6484
      ],
      "fact_recall": 1.0,
      "fact_hits": [
        "Trial Design",
        "TA",
        "TE",
        "TV"
      ],
      "fact_misses": [],
      "answer_preview": "## SDTM 中的试验设计模型数据集\n\nSDTM 包含 **2 类研究级数据**：试验设计数据和试验参考数据 **[Source: model/05_study_level_data.md]**。\n\n### 试验设计模型数据集\n\n试验设计模型（Trial Design Model, TDM）提供了一种标准化方式，用于描述临床试验计划实施的那些方面，这些方面通常体现在研究设计图表中 **[Source: domains/TA/assumptions.md]**。标准化的试验设计数据集使审评员能够：\n\n- 清晰快速地掌握临床试验的设计\n- 比较不同试验的设计\n- 在数据仓库中搜索具有特定特征的临床试验\n- 比较受试者的计划治疗/访视与实际治疗/访视\n\n试验设计数据集包括以下 7 个域：\n\n| 域 | 名称 | 描述 |\n|----|------|------|\n| **TA** | Trial Arms（试验组） | 描述每个试验组通过试验的完整计划路径，包括各研究单元（study cell）的时序安排 |\n| **TE** | Trial Elements（试验要素） | 定义可重用的试验构建块（如筛选期、治疗期、洗脱期、随访期），每个要素有明确的开始/结束规则 |\n| **TV** | Trial Visits（试验访视） | 描述计划访视的时间安排 |\n| **TD** | T",
      "usage": {
        "prompt_tokens": 16463,
        "completion_tokens": 696,
        "total_tokens": 17159
      },
      "model": "deepseek/deepseek-chat",
      "answer": "## SDTM 中的试验设计模型数据集\n\nSDTM 包含 **2 类研究级数据**：试验设计数据和试验参考数据 **[Source: model/05_study_level_data.md]**。\n\n### 试验设计模型数据集\n\n试验设计模型（Trial Design Model, TDM）提供了一种标准化方式，用于描述临床试验计划实施的那些方面，这些方面通常体现在研究设计图表中 **[Source: domains/TA/assumptions.md]**。标准化的试验设计数据集使审评员能够：\n\n- 清晰快速地掌握临床试验的设计\n- 比较不同试验的设计\n- 在数据仓库中搜索具有特定特征的临床试验\n- 比较受试者的计划治疗/访视与实际治疗/访视\n\n试验设计数据集包括以下 7 个域：\n\n| 域 | 名称 | 描述 |\n|----|------|------|\n| **TA** | Trial Arms（试验组） | 描述每个试验组通过试验的完整计划路径，包括各研究单元（study cell）的时序安排 |\n| **TE** | Trial Elements（试验要素） | 定义可重用的试验构建块（如筛选期、治疗期、洗脱期、随访期），每个要素有明确的开始/结束规则 |\n| **TV** | Trial Visits（试验访视） | 描述计划访视的时间安排 |\n| **TD** | Trial Disease Assessments（试验疾病评估） | 描述计划中的疾病评估时间点 |\n| **TM** | Trial Disease Milestones（试验疾病里程碑） | 定义疾病相关的关键里程碑事件 |\n| **TI** | Trial Inclusion/Exclusion Criteria（试验入排标准） | 包含试验的所有入选和排除标准，是方案中入排标准的表格化摘要 **[Source: domains/TI/assumptions.md]** |\n| **TS** | Trial Summary（试验摘要） | 描述试验的整体特征（如设计类型、剂量、对照类型、样本量等），使用参数化的键值对结构 |\n\n### 关键概念\n\n试验设计模型定义了以下核心概念 **[Source: domains/TA/assumptions.md]**：\n\n- **Epoch（时期）**：将受试者参与试验的计划时间划分为若干时期，每个时期服务于试验整体中的特定目的（如治疗、筛选、随访）\n- **Arm（组）**：一条通过试验的计划路径，覆盖整个试验时间\n- **Study Cell（研究单元）**：每个组与每个时期的交叉点，代表该时期在该组中的具体实施方式\n- **Element（要素）**：可重用的试验构建块，一个要素可以在多个研究单元中出现\n\n### 试验参考数据集\n\n此外，研究级数据还包括试验参考数据集：\n\n- **OI**（Non-host Organism Identifiers，非宿主生物体标识符）— 用于标识研究中涉及的非宿主生物体（如微生物、病毒等）\n\n### 类归属\n\n所有试验设计域（TA、TE、TV、TD、TM、TI、TS）均属于 **Trial Design** 类 **[Source: domains/TA/spec.md; domains/TD/spec.md; domains/TE/spec.md]**，这是 SDTM 中研究级数据模型的一部分，与通用观察类（Interventions、Events、Findings）和特殊用途域并列 **[Source: model/01_concepts_and_terms.md]**。",
      "elapsed_s": 9.59
    },
    {
      "id": "q16",
      "category": "mixed",
      "question": "What values are allowed for AESEV and what is its codelist code?",
      "source_recall": 1.0,
      "source_hits": [
        "domains/AE/spec.md",
        "terminology/core/ae.md"
      ],
      "source_misses": [],
      "top5_sources": [
        "terminology/core/ae.md",
        "domains/AE/assumptions.md",
        "domains/DM/examples.md",
        "domains/AE/spec.md",
        "chapters/ch04_general_assumptions.md"
      ],
      "top5_similarities": [
        0.3821,
        0.6134,
        8.5566,
        0.602,
        7.5799
      ],
      "fact_recall": 1.0,
      "fact_hits": [
        "C66769",
        "MILD",
        "MODERATE",
        "SEVERE"
      ],
      "fact_misses": [],
      "answer_preview": "根据 SDTMIG v3.4 规范，AESEV（Severity/Intensity）的受控术语代码为 **C66769**，允许的值为：\n\n| CDISC Submission Value | CDISC Synonym(s) | CDISC Definition |\n|------------------------|------------------|------------------|\n| MILD | 1; Grade 1 | A type of adverse event that is usually transient and may require only minimal treatment or therapeutic intervention. The event does not generally interfere with usual activities of daily living. |\n| MODERATE | 2; Grade 2 | A type of adverse event that is usually alleviated with additional specific therapeutic intervention. The event interferes with usual activities of daily",
      "usage": {
        "prompt_tokens": 15416,
        "completion_tokens": 287,
        "total_tokens": 15703
      },
      "model": "deepseek/deepseek-chat",
      "answer": "根据 SDTMIG v3.4 规范，AESEV（Severity/Intensity）的受控术语代码为 **C66769**，允许的值为：\n\n| CDISC Submission Value | CDISC Synonym(s) | CDISC Definition |\n|------------------------|------------------|------------------|\n| MILD | 1; Grade 1 | A type of adverse event that is usually transient and may require only minimal treatment or therapeutic intervention. The event does not generally interfere with usual activities of daily living. |\n| MODERATE | 2; Grade 2 | A type of adverse event that is usually alleviated with additional specific therapeutic intervention. The event interferes with usual activities of daily living, causing discomfort but poses no significant or permanent risk of harm to the research participant. |\n| SEVERE | 3; Grade 3 | A type of adverse event that interrupts usual activities of daily living, or significantly affects clinical status, or may require intensive therapeutic intervention. |\n\n**来源：**\n- AESEV 变量定义（Role: Record Qualifier; Type: Char; Core: Perm; Controlled Terms: C66769）— **[Source: domains/AE/spec.md -- AESEV]**\n- C66769 受控术语列表（Extensible: No）— **[Source: terminology/core/ae.md -- Severity/Intensity Scale for Adverse Events (C66769)]**",
      "elapsed_s": 4.02
    },
    {
      "id": "q17",
      "category": "mixed",
      "question": "How are date and time variables formatted in SDTM and what suffix do they use?",
      "source_recall": 1.0,
      "source_hits": [
        "chapters/ch04"
      ],
      "source_misses": [],
      "top5_sources": [
        "chapters/ch04_general_assumptions.md",
        "model/01_concepts_and_terms.md",
        "chapters/ch04_general_assumptions.md",
        "chapters/ch04_general_assumptions.md",
        "chapters/ch01_introduction.md"
      ],
      "top5_similarities": [
        0.763,
        0.6154,
        0.6041,
        0.5795,
        9.6467
      ],
      "fact_recall": 1.0,
      "fact_hits": [
        "ISO 8601",
        "DTC"
      ],
      "fact_misses": [],
      "answer_preview": "在 SDTM 中，日期/时间变量使用 **ISO 8601 扩展格式** 表示，并采用 **DTC** 后缀。\n\n具体规则如下：\n\n1. **格式**：ISO 8601 扩展格式，日期部分使用连字符分隔（YYYY-MM-DD），时间部分使用冒号分隔（hh:mm:ss），日期和时间之间用 \"T\" 连接。例如：`2003-12-15T13:14:17`。**[Source: chapters/ch04_general_assumptions.md -- 4.4.1 Formats for Date/Time Variables]**\n\n2. **数据类型**：所有日期/时间变量均为字符型（Char）。**[Source: chapters/ch04_general_assumptions.md -- 4.4.1 Formats for Date/Time Variables]**\n\n3. **变量后缀**：日期/时间变量的 SDTM 片段（命名后缀）为 **DTC**。例如：`VSDTC`（生命体征测量日期/时间）、`DMDTC`（人口学数据收集日期/时间）、`SSDTC`（受试者状态评估日期/时间）。**[Source: chapters/ch04_general_assumptions.md -- 4.4.1 Formats for Date/Time Variables; dom",
      "usage": {
        "prompt_tokens": 17046,
        "completion_tokens": 606,
        "total_tokens": 17652
      },
      "model": "deepseek/deepseek-chat",
      "answer": "在 SDTM 中，日期/时间变量使用 **ISO 8601 扩展格式** 表示，并采用 **DTC** 后缀。\n\n具体规则如下：\n\n1. **格式**：ISO 8601 扩展格式，日期部分使用连字符分隔（YYYY-MM-DD），时间部分使用冒号分隔（hh:mm:ss），日期和时间之间用 \"T\" 连接。例如：`2003-12-15T13:14:17`。**[Source: chapters/ch04_general_assumptions.md -- 4.4.1 Formats for Date/Time Variables]**\n\n2. **数据类型**：所有日期/时间变量均为字符型（Char）。**[Source: chapters/ch04_general_assumptions.md -- 4.4.1 Formats for Date/Time Variables]**\n\n3. **变量后缀**：日期/时间变量的 SDTM 片段（命名后缀）为 **DTC**。例如：`VSDTC`（生命体征测量日期/时间）、`DMDTC`（人口学数据收集日期/时间）、`SSDTC`（受试者状态评估日期/时间）。**[Source: chapters/ch04_general_assumptions.md -- 4.4.1 Formats for Date/Time Variables; domains/VS/spec.md -- VSDTC; domains/DM/spec.md -- DMDTC; domains/SS/spec.md -- SSDTC]**\n\n4. **精度处理**：精度通过 ISO 8601 标准中组件的存在或缺失来推断。缺失的组件通过右截断或连字符表示。例如：\n   - 仅日期：`2003-12-15`\n   - 仅年月：`2003-12`\n   - 仅年份：`2003`\n   - 未知小时但已知分钟：`2003-12-15T--:15`\n   - 未知年份但已知月日：`--12-15`\n   - 完全缺失：字段应为空。**[Source: chapters/ch04_general_assumptions.md -- 4.4.2 Date/Time Precision]**\n\n5. **时间间隔**：不确定的时间间隔可通过用斜杠（/）连接两个日期/时间值来表示。例如：`2003-12-15T10:00/2003-12-15T10:30`。**[Source: chapters/ch04_general_assumptions.md -- 4.4.2 Date/Time Precision]**\n\n6. **不允许空格**：任何 ISO 8601 表示中都不允许出现空格。**[Source: chapters/ch04_general_assumptions.md -- 4.4.1 Formats for Date/Time Variables]**\n\n**总结**：SDTM 日期/时间变量使用 ISO 8601 扩展格式的字符型变量，变量名以 **DTC** 结尾，精度通过组件的存在或缺失来推断。",
      "elapsed_s": 6.74
    },
    {
      "id": "q18",
      "category": "mixed",
      "question": "Explain the MedDRA coding chain for adverse events from verbatim term to dictionary term.",
      "source_recall": 1.0,
      "source_hits": [
        "domains/AE/spec.md",
        "domains/AE/assumptions.md"
      ],
      "source_misses": [],
      "top5_sources": [
        "domains/AE/spec.md",
        "domains/AE/spec.md",
        "domains/AE/spec.md",
        "domains/AE/spec.md",
        "chapters/ch04_general_assumptions.md"
      ],
      "top5_similarities": [
        0.6135,
        0.5646,
        0.5637,
        0.5579,
        0.6726
      ],
      "fact_recall": 1.0,
      "fact_hits": [
        "AETERM",
        "AEMODIFY",
        "AEDECOD",
        "Preferred Term"
      ],
      "fact_misses": [],
      "answer_preview": "## MedDRA 编码链：从原始术语到字典术语\n\n不良事件（AE）的 MedDRA 编码链在 SDTM 中通过一系列变量实现，从原始采集的术语逐步映射到字典中的标准层级术语。以下是完整的编码链：\n\n### 1. 原始术语层\n\n**AETERM** — Reported Term for the Adverse Event\n- **Type:** Char | **Role:** Topic | **Core:** Req\n- 采集的事件原始术语（verbatim term），是 AE 数据集的主题变量，必须有值。\n- *示例：* `\"POUNDING HEADACHE\"`、`\"BACK PAIN FOR 5 HOURS\"`\n- **[Source: domains/AE/spec.md]** **[Source: domains/AE/assumptions.md item_2a]**\n\n**AEMODIFY** — Modified Reported Term\n- **Type:** Char | **Role:** Synonym Qualifier | **Core:** Perm\n- 如果申办方允许修改原始术语以辅助编码，则使用此变量记录修改后的术语。\n- *示例：* `\"Headache\"`（从 `\"POUNDING HEADACHE\"` 修改而来）\n- **[Sour",
      "usage": {
        "prompt_tokens": 14459,
        "completion_tokens": 1465,
        "total_tokens": 15924
      },
      "model": "deepseek/deepseek-chat",
      "answer": "## MedDRA 编码链：从原始术语到字典术语\n\n不良事件（AE）的 MedDRA 编码链在 SDTM 中通过一系列变量实现，从原始采集的术语逐步映射到字典中的标准层级术语。以下是完整的编码链：\n\n### 1. 原始术语层\n\n**AETERM** — Reported Term for the Adverse Event\n- **Type:** Char | **Role:** Topic | **Core:** Req\n- 采集的事件原始术语（verbatim term），是 AE 数据集的主题变量，必须有值。\n- *示例：* `\"POUNDING HEADACHE\"`、`\"BACK PAIN FOR 5 HOURS\"`\n- **[Source: domains/AE/spec.md]** **[Source: domains/AE/assumptions.md item_2a]**\n\n**AEMODIFY** — Modified Reported Term\n- **Type:** Char | **Role:** Synonym Qualifier | **Core:** Perm\n- 如果申办方允许修改原始术语以辅助编码，则使用此变量记录修改后的术语。\n- *示例：* `\"Headache\"`（从 `\"POUNDING HEADACHE\"` 修改而来）\n- **[Source: domains/AE/assumptions.md item_2b]**\n\n### 2. 最低层级术语（LLT）\n\n**AELLT** — Lowest Level Term\n- **Type:** Char | **Role:** Variable Qualifier | **Core:** Exp\n- MedDRA 层级中的最低层级术语文本描述。\n\n**AELLTCD** — Lowest Level Term Code\n- **Type:** Num | **Role:** Variable Qualifier | **Core:** Exp\n- MedDRA 最低层级术语的代码值。\n- **[Source: domains/AE/spec.md]** **[Source: chapters/ch04_general_assumptions.md §4.3.5]**\n\n### 3. 首选术语（PT）— 核心编码输出\n\n**AEDECOD** — Dictionary-Derived Term\n- **Type:** Char | **Role:** Synonym Qualifier | **Core:** **Req**\n- 字典派生的术语描述，**等同于 MedDRA 中的 Preferred Term (PT)**。这是必需的变量，必须有值。\n- *示例：* `\"Headache\"`、`\"Back pain\"`、`\"Pulmonary embolism\"`\n- **[Source: domains/AE/spec.md]** **[Source: domains/AE/assumptions.md item_2c]**\n\n**AEPTCD** — Preferred Term Code\n- **Type:** Num | **Role:** Variable Qualifier | **Core:** Exp\n- MedDRA 首选术语的代码值。\n- **[Source: domains/AE/spec.md]**\n\n### 4. 高位层级术语（HLT）\n\n**AEHLT** — High Level Term\n- **Type:** Char | **Role:** Variable Qualifier | **Core:** Exp\n- MedDRA 高位层级术语文本。\n\n**AEHLTCD** — High Level Term Code\n- **Type:** Num | **Role:** Variable Qualifier | **Core:** Exp\n- MedDRA 高位层级术语代码。\n- **[Source: domains/AE/spec.md]**\n\n### 5. 高位组术语（HLGT）\n\n**AEHLGT** — High Level Group Term\n- **Type:** Char | **Role:** Variable Qualifier | **Core:** Exp\n- MedDRA 高位组术语文本。\n\n**AEHLGTCD** — High Level Group Term Code\n- **Type:** Num | **Role:** Variable Qualifier | **Core:** Exp\n- MedDRA 高位组术语代码。\n- **[Source: domains/AE/spec.md]**\n\n### 6. 系统器官分类（SOC）层\n\n**AEBODSYS** — Body System or Organ Class\n- **Type:** Char | **Role:** Record Qualifier | **Core:** Exp\n- 申办方分析所使用的 SOC（可能不是 Primary SOC）。如果多轴编码，此值代表申办方分析所用的 SOC。\n- *示例：* `\"Nervous system disorders\"`、`\"Vascular disorders\"`\n- **[Source: domains/AE/assumptions.md item_2d]** **[Source: chapters/ch04_general_assumptions.md §4.3.5]**\n\n**AEBDSYCD** — Body System or Organ Class Code\n- **Type:** Num | **Role:** Variable Qualifier | **Core:** Exp\n- MedDRA SOC 代码（对应 AEBODSYS）。\n\n**AESOC** — Primary System Organ Class\n- **Type:** Char | **Role:** Variable Qualifier | **Core:** Exp\n- MedDRA 字典派生的 **Primary SOC**。当 Primary SOC 与分析所用 SOC 相同时，AEBODSYS 和 AESOC 值相同。\n\n**AESOCCD** — Primary System Organ Class Code\n- **Type:** Num | **Role:** Variable Qualifier | **Core:** Exp\n- Primary SOC 的 MedDRA 代码。\n- **[Source: chapters/ch04_general_assumptions.md §4.3.5]**\n\n---\n\n### 编码链完整图示\n\n```\nAETERM (原始术语)\n    │\n    ├── AEMODIFY (修改后术语，可选)\n    │\n    ▼\nAELLT ─── AELLTCD (最低层级术语 LLT)\n    │\n    ▼\nAEDECOD ─── AEPTCD (首选术语 PT) ← 核心输出，必需\n    │\n    ▼\nAEHLT ─── AEHLTCD (高位层级术语 HLT)\n    │\n    ▼\nAEHLGT ─── AEHLGTCD (高位组术语 HLGT)\n    │\n    ▼\nAEBODSYS ─── AEBDSYCD (分析用 SOC)\nAESOC ─── AESOCCD (Primary SOC)\n```\n\n### 关键规则\n\n1. **AEDECOD 是必需的**，必须始终有值，等同于 MedDRA PT **[Source: domains/AE/assumptions.md item_2c]**\n2. **AEBODSYS 是预期的**，应始终填充，代表分析所用的 SOC **[Source: domains/AE/assumptions.md item_2d]**\n3. 如果字典是多轴的，AEBODSYS 可能不等于 AESOC（Primary SOC）**[Source: chapters/ch04_general_assumptions.md §4.3.5]**\n4. 申办方必须在 Define-XML 中提供字典名称和版本（通过 external codelist 元素）**[Source: domains/AE/assumptions.md item_2c]**\n5. 字典名称的受控术语包括 MedDRA (C43820)、COSTART (C49471)、CTCAE (C49704) 等 **[Source: terminology/core/trial_design.md — Dictionary Name (C66788)]**",
      "elapsed_s": 12.95
    },
    {
      "id": "q19",
      "category": "mixed",
      "question": "What controlled terminology codelist is used for DSDECOD when DSCAT equals 'DISPOSITION EVENT', and list specific CDISC Submission Values from that codelist for reasons of non-completion.",
      "source_recall": 1.0,
      "source_hits": [
        "domains/DS/assumptions.md",
        "terminology/core/disposition.md"
      ],
      "source_misses": [],
      "top5_sources": [
        "domains/DS/spec.md",
        "terminology/core/disposition.md",
        "domains/DS/assumptions.md",
        "domains/DS/assumptions.md",
        "domains/DS/spec.md"
      ],
      "top5_similarities": [
        0.8036,
        0.634,
        0.7554,
        0.7186,
        0.7248
      ],
      "fact_recall": 1.0,
      "fact_hits": [
        "NCOMPLT",
        "C66727"
      ],
      "fact_misses": [],
      "answer_preview": "根据 SDTMIG v3.4 的规定，当 **DSCAT = \"DISPOSITION EVENT\"** 时，**DSDECOD** 使用的受控术语 codelist 是 **Completion/Reason for Non-Completion (C66727)**（即 NCOMPLT codelist）[Source: domains/DS/spec.md]。\n\n该 codelist 是 **extensible**（可扩展的）[Source: terminology/core/disposition.md]。对于非完成原因，DSDECOD 应使用该 codelist 中的标准化术语。以下是一些常见的非完成原因 CDISC Submission Values（名称仅作示例，完整列表需查阅 CDISC 发布的受控术语文件）：\n\n- ADVERSE EVENT\n- DEATH\n- LOST TO FOLLOW-UP\n- PHYSICIAN DECISION\n- PROGRESSIVE DISEASE\n- PROTOCOL VIOLATION\n- WITHDRAWAL BY SUBJECT\n- WITHDRAWAL BY PARENT/GUARDIAN\n- STUDY TERMINATED BY SPONSOR\n\n**注意**：上述每个值的 NCI \"C\" 代码未在提供的上下文中逐",
      "usage": {
        "prompt_tokens": 11756,
        "completion_tokens": 275,
        "total_tokens": 12031
      },
      "model": "deepseek/deepseek-chat",
      "answer": "根据 SDTMIG v3.4 的规定，当 **DSCAT = \"DISPOSITION EVENT\"** 时，**DSDECOD** 使用的受控术语 codelist 是 **Completion/Reason for Non-Completion (C66727)**（即 NCOMPLT codelist）[Source: domains/DS/spec.md]。\n\n该 codelist 是 **extensible**（可扩展的）[Source: terminology/core/disposition.md]。对于非完成原因，DSDECOD 应使用该 codelist 中的标准化术语。以下是一些常见的非完成原因 CDISC Submission Values（名称仅作示例，完整列表需查阅 CDISC 发布的受控术语文件）：\n\n- ADVERSE EVENT\n- DEATH\n- LOST TO FOLLOW-UP\n- PHYSICIAN DECISION\n- PROGRESSIVE DISEASE\n- PROTOCOL VIOLATION\n- WITHDRAWAL BY SUBJECT\n- WITHDRAWAL BY PARENT/GUARDIAN\n- STUDY TERMINATED BY SPONSOR\n\n**注意**：上述每个值的 NCI \"C\" 代码未在提供的上下文中逐行显示，因此无法在此处附加。如需获取每个值的完整代码，请查阅 CDISC 发布的 NCOMPLT codelist 文件。",
      "elapsed_s": 4.35
    },
    {
      "id": "q20",
      "category": "mixed",
      "question": "In the DM domain, what is the difference between the RFSTDTC/RFENDTC reference period pair and the RFXSTDTC/RFXENDTC pair, and under what circumstances will RFSTDTC be null?",
      "source_recall": 1.0,
      "source_hits": [
        "domains/DM/assumptions.md",
        "domains/DM/spec.md"
      ],
      "source_misses": [],
      "top5_sources": [
        "domains/DM/spec.md",
        "domains/DM/spec.md",
        "domains/DM/spec.md",
        "domains/DM/spec.md",
        "domains/DM/assumptions.md"
      ],
      "top5_similarities": [
        0.624,
        0.5839,
        0.55,
        0.547,
        0.6645
      ],
      "fact_recall": 0.5,
      "fact_hits": [
        "screen failure"
      ],
      "fact_misses": [
        "sponsor-defined"
      ],
      "answer_preview": "## DM 域中 RFSTDTC/RFENDTC 与 RFXSTDTC/RFXENDTC 的区别\n\n### 两对参考期的区别\n\n**RFSTDTC 和 RFENDTC**（Subject Reference Start/End Date/Time）：\n- 由申办方定义，通常代表受试者首次和末次研究暴露的日期/时间\n- 但**可自定义**——在某些研究设计中，参考期的起始点可能不同，例如：\n  - 随机化前有洗脱期的研究\n  - 筛选期间需要医疗程序（如活检）的研究\n  - 在这些情况下，RFSTDTC 可能是入组日期（早于首次给药）\n- 由于**研究日（study day）** 是基于 RFSTDTC 计算的，因此当 RFSTDTC 不是首次给药日期时，研究日也不基于首次给药日期\n\n**[Source: domains/DM/assumptions.md — item_10a]**\n\n**RFXSTDTC 和 RFXENDTC**（Date/Time of First/Last Study Treatment）：\n- 为所有**干预性研究**定义一致的参考期，**不可自定义**\n- 始终代表首次和末次研究暴露的日期/时间\n- 这一对变量确保审阅者**始终**能够找到首次和末次研究暴露的参考期\n- RFXSTDTC 应与 SE 数据集中第一个治疗元素的 SESTDTC 相同\n- RF",
      "usage": {
        "prompt_tokens": 12172,
        "completion_tokens": 546,
        "total_tokens": 12718
      },
      "model": "deepseek/deepseek-chat",
      "answer": "## DM 域中 RFSTDTC/RFENDTC 与 RFXSTDTC/RFXENDTC 的区别\n\n### 两对参考期的区别\n\n**RFSTDTC 和 RFENDTC**（Subject Reference Start/End Date/Time）：\n- 由申办方定义，通常代表受试者首次和末次研究暴露的日期/时间\n- 但**可自定义**——在某些研究设计中，参考期的起始点可能不同，例如：\n  - 随机化前有洗脱期的研究\n  - 筛选期间需要医疗程序（如活检）的研究\n  - 在这些情况下，RFSTDTC 可能是入组日期（早于首次给药）\n- 由于**研究日（study day）** 是基于 RFSTDTC 计算的，因此当 RFSTDTC 不是首次给药日期时，研究日也不基于首次给药日期\n\n**[Source: domains/DM/assumptions.md — item_10a]**\n\n**RFXSTDTC 和 RFXENDTC**（Date/Time of First/Last Study Treatment）：\n- 为所有**干预性研究**定义一致的参考期，**不可自定义**\n- 始终代表首次和末次研究暴露的日期/时间\n- 这一对变量确保审阅者**始终**能够找到首次和末次研究暴露的参考期\n- RFXSTDTC 应与 SE 数据集中第一个治疗元素的 SESTDTC 相同\n- RFXENDTC 通常与 SE 数据集中最后一个治疗元素的 SEENDTC 相同\n\n**[Source: domains/DM/assumptions.md — item_10b]**\n\n### RFSTDTC 为空的场景\n\n根据第 4.1.4 节（变量顺序）的描述，RFSTDTC 用于计算研究日变量。在以下情况下 RFSTDTC 将为 null：\n\n1. **筛选失败**的受试者（ARMNRS = \"SCREEN FAILURE\"）\n2. **已入组但未分配至试验组**的受试者（ARMNRS = \"NOT ASSIGNED\"）\n3. **已随机但未接受治疗**的受试者（ARMNRS = \"NOT TREATED\"）\n\n**[Source: domains/DM/assumptions.md — item_9]**\n\n此外，对于**非干预性或观察性研究**、**无治疗组的研究**，以及**随机化与治疗之间存在延迟的研究**，申办方可以选择不同的方案里程碑作为研究日变量的起始点，此时 RFSTDTC 的定义可能不同于首次给药日期。",
      "elapsed_s": 6.27
    },
    {
      "id": "q42",
      "category": "mixed",
      "question": "In the LB domain, how are normal ranges represented using LBORNRLO and LBORNRHI, and what is the LBNRIND variable used for?",
      "source_recall": 1.0,
      "source_hits": [
        "domains/LB/spec.md",
        "domains/LB/assumptions.md"
      ],
      "source_misses": [],
      "top5_sources": [
        "domains/LB/spec.md",
        "domains/LB/spec.md",
        "domains/LB/spec.md",
        "domains/LB/spec.md",
        "domains/LB/assumptions.md"
      ],
      "top5_similarities": [
        0.7713,
        0.6936,
        0.6934,
        0.6692,
        0.764
      ],
      "fact_recall": 1.0,
      "fact_hits": [
        "LBORNRLO",
        "LBORNRHI",
        "LBNRIND"
      ],
      "fact_misses": [],
      "answer_preview": "## LB 域中正常范围的表示\n\n### LBORNRLO 和 LBORNRHI\n\n**LBORNRLO**（Reference Range Lower Limit in Orig Unit）和 **LBORNRHI**（Reference Range Upper Limit in Orig Unit）用于表示连续型检验结果在**原始单位**下的参考范围上下限。\n\n| 属性 | LBORNRLO | LBORNRHI |\n|------|----------|----------|\n| **Label** | Reference Range Lower Limit in Orig Unit | Reference Range Upper Limit in Orig Unit |\n| **Type** | Char | Char |\n| **Role** | Variable Qualifier | Variable Qualifier |\n| **Core** | Exp | Exp |\n| **Controlled Terms** | — | — |\n\n**[Source: domains/LB/spec.md — LBORNRLO, LBORNRHI]**\n\n**关键规则：**\n- 仅适用于**连续型数值结果**（continuous results）\n- 对于非连续型结果（如",
      "usage": {
        "prompt_tokens": 13050,
        "completion_tokens": 741,
        "total_tokens": 13791
      },
      "model": "deepseek/deepseek-chat",
      "answer": "## LB 域中正常范围的表示\n\n### LBORNRLO 和 LBORNRHI\n\n**LBORNRLO**（Reference Range Lower Limit in Orig Unit）和 **LBORNRHI**（Reference Range Upper Limit in Orig Unit）用于表示连续型检验结果在**原始单位**下的参考范围上下限。\n\n| 属性 | LBORNRLO | LBORNRHI |\n|------|----------|----------|\n| **Label** | Reference Range Lower Limit in Orig Unit | Reference Range Upper Limit in Orig Unit |\n| **Type** | Char | Char |\n| **Role** | Variable Qualifier | Variable Qualifier |\n| **Core** | Exp | Exp |\n| **Controlled Terms** | — | — |\n\n**[Source: domains/LB/spec.md — LBORNRLO, LBORNRHI]**\n\n**关键规则：**\n- 仅适用于**连续型数值结果**（continuous results）\n- 对于非连续型结果（如尿蛋白试纸法、尿色等描述性检验），LBORNRLO 和 LBORNRHI 应保持为空（null）\n- 标准化单位下的参考范围由 **LBSTNRLO** 和 **LBSTNRHI** 表示\n\n**[Source: domains/LB/assumptions.md — item_2, item_6]**\n\n### LBNRIND\n\n**LBNRIND**（Reference Range Indicator）用于指示检验结果相对于参考范围的位置。\n\n| 属性 | 值 |\n|------|-----|\n| **Label** | Reference Range Indicator |\n| **Type** | Char |\n| **Controlled Terms** | C78736 |\n| **Role** | Variable Qualifier |\n| **Core** | Exp |\n\n**[Source: domains/LB/spec.md — LBNRIND]**\n\n**允许值示例**（来自受控术语 C78736）：\n- `\"NORMAL\"` — 正常\n- `\"ABNORMAL\"` — 异常\n- `\"HIGH\"` — 偏高\n- `\"LOW\"` — 偏低\n\n**[Source: domains/LB/spec.md — LBNRIND CDISC Notes]**\n\n**使用规则：**\n1. LBNRIND 参照的是由 LBORNRLO/LBORNRHI（原始单位）或 LBSTNRLO/LBSTNRHI（标准化单位）或 LBSTNRC（字符型参考范围）定义的参考范围\n2. 申办方应在 Define-XML 的 Comments 列中说明 LBNRIND 参照的是原始参考范围还是标准化参考范围\n3. **LBNRIND 不用于表示临床意义**（临床意义应使用 LBCLSIG 变量）\n4. 如果使用了毒性分级，应使用 LBTOX 和 LBTOXGR 变量表示\n\n**[Source: domains/LB/spec.md — LBNRIND; domains/LB/assumptions.md — item_3]**\n\n### 总结\n\n| 变量 | 用途 | 适用场景 |\n|------|------|----------|\n| LBORNRLO / LBORNRHI | 原始单位下的参考范围上下限 | 连续型数值结果 |\n| LBSTNRLO / LBSTNRHI | 标准化单位下的参考范围上下限 | 连续型数值结果 |\n| LBSTNRC | 字符型参考范围（如 \"-1 to +1\"） | 有序分类或描述性检验 |\n| LBNRIND | 结果相对于参考范围的位置指示 | 所有有参考范围的检验 |",
      "elapsed_s": 7.19
    },
    {
      "id": "q43",
      "category": "mixed",
      "question": "What is the controlled terminology codelist for the SEX variable in the DM domain? Provide the codelist code and describe the Core designation.",
      "source_recall": 1.0,
      "source_hits": [
        "domains/DM/spec.md"
      ],
      "source_misses": [],
      "top5_sources": [
        "domains/DM/spec.md",
        "terminology/core/dm.md",
        "chapters/ch04_general_assumptions.md",
        "domains/DM/spec.md",
        "chapters/ch04_general_assumptions.md"
      ],
      "top5_similarities": [
        0.6578,
        0.5551,
        0.633,
        0.6311,
        0.5852
      ],
      "fact_recall": 1.0,
      "fact_hits": [
        "SEX",
        "C66731",
        "Req"
      ],
      "fact_misses": [],
      "answer_preview": "根据检索到的上下文，DM 域中 **SEX** 变量的受控术语 codelist 是 **C66731**（Sex）。\n\n**Core 指定为：Req（必需）**。\n\n详细信息如下：\n- **变量名：** SEX\n- **标签：** Sex\n- **类型：** Char\n- **受控术语：** C66731\n- **角色：** Record Qualifier\n- **Core：** Req\n- **CDISC 注释：** 受试者的性别。\n\n**[Source: domains/DM/spec.md]**\n\n该 codelist (C66731) 包含以下允许值：\n- **F** (Female)\n- **M** (Male)\n- **U** (Unknown)\n- **UNDIFFERENTIATED**\n\n**[Source: terminology/core/dm.md]**",
      "usage": {
        "prompt_tokens": 12539,
        "completion_tokens": 175,
        "total_tokens": 12714
      },
      "model": "deepseek/deepseek-chat",
      "answer": "根据检索到的上下文，DM 域中 **SEX** 变量的受控术语 codelist 是 **C66731**（Sex）。\n\n**Core 指定为：Req（必需）**。\n\n详细信息如下：\n- **变量名：** SEX\n- **标签：** Sex\n- **类型：** Char\n- **受控术语：** C66731\n- **角色：** Record Qualifier\n- **Core：** Req\n- **CDISC 注释：** 受试者的性别。\n\n**[Source: domains/DM/spec.md]**\n\n该 codelist (C66731) 包含以下允许值：\n- **F** (Female)\n- **M** (Male)\n- **U** (Unknown)\n- **UNDIFFERENTIATED**\n\n**[Source: terminology/core/dm.md]**",
      "elapsed_s": 3.11
    },
    {
      "id": "q44",
      "category": "mixed",
      "question": "In the VS domain, what is the controlled terminology codelist code for VSTESTCD, and give examples of standard vital signs test codes like systolic and diastolic blood pressure.",
      "source_recall": 1.0,
      "source_hits": [
        "domains/VS/spec.md"
      ],
      "source_misses": [],
      "top5_sources": [
        "domains/VS/spec.md",
        "terminology/core/vs.md",
        "domains/VS/spec.md",
        "domains/VS/spec.md",
        "VARIABLE_INDEX.md"
      ],
      "top5_similarities": [
        0.7284,
        0.4981,
        0.6737,
        0.6183,
        0.5512
      ],
      "fact_recall": 1.0,
      "fact_hits": [
        "C66741",
        "SYSBP",
        "DIABP"
      ],
      "fact_misses": [],
      "answer_preview": "根据 SDTMIG v3.4 规范，VS 域中 **VSTESTCD** 的受控术语编码为 **C66741**（Vital Signs Test Code）[Source: domains/VS/spec.md]。\n\n该编码对应的标准生命体征测试代码示例如下：\n\n| 测试代码 (VSTESTCD) | 测试名称 (VSTEST) | NCI 编码 |\n|---------------------|-------------------|----------|\n| SYSBP | Systolic Blood Pressure | C25298 |\n| DIABP | Diastolic Blood Pressure | C25299 |\n| PULSE | Pulse Rate | C49676 |\n| TEMP | Temperature | C25277 |\n| WEIGHT | Weight | C25278 |\n| HEIGHT | Height | C25279 |\n| BMI | Body Mass Index | C16358 |\n| RESP | Respiratory Rate | C49675 |\n| O2SAT | Oxygen Saturation | C49677 |\n\n[Source: terminology/core/vs.md — Vital Si",
      "usage": {
        "prompt_tokens": 15171,
        "completion_tokens": 280,
        "total_tokens": 15451
      },
      "model": "deepseek/deepseek-chat",
      "answer": "根据 SDTMIG v3.4 规范，VS 域中 **VSTESTCD** 的受控术语编码为 **C66741**（Vital Signs Test Code）[Source: domains/VS/spec.md]。\n\n该编码对应的标准生命体征测试代码示例如下：\n\n| 测试代码 (VSTESTCD) | 测试名称 (VSTEST) | NCI 编码 |\n|---------------------|-------------------|----------|\n| SYSBP | Systolic Blood Pressure | C25298 |\n| DIABP | Diastolic Blood Pressure | C25299 |\n| PULSE | Pulse Rate | C49676 |\n| TEMP | Temperature | C25277 |\n| WEIGHT | Weight | C25278 |\n| HEIGHT | Height | C25279 |\n| BMI | Body Mass Index | C16358 |\n| RESP | Respiratory Rate | C49675 |\n| O2SAT | Oxygen Saturation | C49677 |\n\n[Source: terminology/core/vs.md — Vital Signs Test Code (C66741)]\n\n**注意**：上述 NCI 编码（如 C25298、C25299）来自受控术语文件中的具体值行，已在检索上下文中明确可见。对于未在检索上下文中出现的其他测试代码，其 NCI 编码需通过完整的 CDISC 术语文件确认。",
      "elapsed_s": 4.21
    },
    {
      "id": "q45",
      "category": "mixed",
      "question": "What is the RACE variable in the DM domain, what codelist does it use, and what is its Core designation?",
      "source_recall": 1.0,
      "source_hits": [
        "domains/DM/spec.md"
      ],
      "source_misses": [],
      "top5_sources": [
        "domains/DM/spec.md",
        "terminology/core/dm.md",
        "domains/DM/examples.md",
        "domains/DM/examples.md",
        "domains/DM/assumptions.md"
      ],
      "top5_similarities": [
        0.6135,
        0.469,
        0.5662,
        0.5707,
        0.6038
      ],
      "fact_recall": 1.0,
      "fact_hits": [
        "RACE",
        "C74457",
        "Exp"
      ],
      "fact_misses": [],
      "answer_preview": "根据 SDTMIG v3.4 规范，**RACE** 变量位于 **DM**（Demographics）域中，其定义如下：\n\n- **Label（标签）:** Race\n- **Type（类型）:** Char（字符型）\n- **Role（角色）:** Record Qualifier（记录限定符）\n- **Core（核心性）:** Exp（预期出现）\n- **Controlled Terms（受控术语）:** C74457\n\n**[Source: domains/DM/spec.md — RACE]**\n\n该受控术语列表（C74457）为不可扩展（Extensible: No）的编码表，包含以下标准值：\n\n| 提交值 | 说明 |\n|--------|------|\n| AMERICAN INDIAN OR ALASKA NATIVE | 美洲印第安人或阿拉斯加原住民 |\n| ASIAN | 亚洲人 |\n| BLACK OR AFRICAN AMERICAN | 黑人或非裔美国人 |\n| NATIVE HAWAIIAN OR OTHER PACIFIC ISLANDER | 夏威夷原住民或其他太平洋岛民 |\n| WHITE | 白人 |\n| NOT REPORTED | 未报告 |\n| OTHER | 其他 |\n| UNKNOWN | 未知 |\n\n**[Source: termi",
      "usage": {
        "prompt_tokens": 16646,
        "completion_tokens": 352,
        "total_tokens": 16998
      },
      "model": "deepseek/deepseek-chat",
      "answer": "根据 SDTMIG v3.4 规范，**RACE** 变量位于 **DM**（Demographics）域中，其定义如下：\n\n- **Label（标签）:** Race\n- **Type（类型）:** Char（字符型）\n- **Role（角色）:** Record Qualifier（记录限定符）\n- **Core（核心性）:** Exp（预期出现）\n- **Controlled Terms（受控术语）:** C74457\n\n**[Source: domains/DM/spec.md — RACE]**\n\n该受控术语列表（C74457）为不可扩展（Extensible: No）的编码表，包含以下标准值：\n\n| 提交值 | 说明 |\n|--------|------|\n| AMERICAN INDIAN OR ALASKA NATIVE | 美洲印第安人或阿拉斯加原住民 |\n| ASIAN | 亚洲人 |\n| BLACK OR AFRICAN AMERICAN | 黑人或非裔美国人 |\n| NATIVE HAWAIIAN OR OTHER PACIFIC ISLANDER | 夏威夷原住民或其他太平洋岛民 |\n| WHITE | 白人 |\n| NOT REPORTED | 未报告 |\n| OTHER | 其他 |\n| UNKNOWN | 未知 |\n\n**[Source: terminology/core/dm.md — Race (C74457)]**\n\n此外，根据 DM 域的假设规则，如果收集了多种族（multiple races）数据，则 RACE 的值应为 \"MULTIPLE\"，详细信息记录在 SUPPDM 补充限定符数据集中。如果指定了主要种族，则 RACE 记录主要种族，其他种族记录在 SUPPDM 中。\n\n**[Source: domains/DM/assumptions.md — item_6]**",
      "elapsed_s": 4.41
    },
    {
      "id": "q46",
      "category": "mixed",
      "question": "What is the AEOUT (Outcome of Adverse Event) variable in the AE domain and what controlled terminology codelist code does it use?",
      "source_recall": 1.0,
      "source_hits": [
        "domains/AE/spec.md"
      ],
      "source_misses": [],
      "top5_sources": [
        "domains/AE/spec.md",
        "terminology/core/ae.md",
        "domains/AE/spec.md",
        "VARIABLE_INDEX.md",
        "domains/AE/assumptions.md"
      ],
      "top5_similarities": [
        0.7992,
        0.5705,
        0.6582,
        0.6157,
        0.7025
      ],
      "fact_recall": 1.0,
      "fact_hits": [
        "AEOUT",
        "C66768",
        "Perm"
      ],
      "fact_misses": [],
      "answer_preview": "根据 SDTMIG v3.4 规范，**AEOUT**（Outcome of Adverse Event）是 AE（不良事件）域中的一个变量。\n\n### 变量定义\n\n- **Label（标签）**: Outcome of Adverse Event\n- **Type（类型）**: Char（字符型）\n- **Role（角色）**: Record Qualifier（记录限定符）\n- **Core（核心）**: Perm（允许的）\n- **CDISC Notes（说明）**: Description of the outcome of an event（事件结果的描述）。\n\n[Source: domains/AE/spec.md]\n\n### 受控术语（Controlled Terminology）\n\nAEOUT 使用的受控术语代码为 **C66768**（Outcome of Event）。该术语列表不可扩展（Extensible: No），允许的提交值包括：\n\n| 提交值 | 定义 |\n|--------|------|\n| FATAL | 因不良事件导致生命终止 |\n| NOT RECOVERED/NOT RESOLVED | 事件未改善或未恢复 |\n| RECOVERED/RESOLVED WITH SEQUELAE | 受试者已恢复但留有后遗症 |\n| RECOVERED/R",
      "usage": {
        "prompt_tokens": 15460,
        "completion_tokens": 294,
        "total_tokens": 15754
      },
      "model": "deepseek/deepseek-chat",
      "answer": "根据 SDTMIG v3.4 规范，**AEOUT**（Outcome of Adverse Event）是 AE（不良事件）域中的一个变量。\n\n### 变量定义\n\n- **Label（标签）**: Outcome of Adverse Event\n- **Type（类型）**: Char（字符型）\n- **Role（角色）**: Record Qualifier（记录限定符）\n- **Core（核心）**: Perm（允许的）\n- **CDISC Notes（说明）**: Description of the outcome of an event（事件结果的描述）。\n\n[Source: domains/AE/spec.md]\n\n### 受控术语（Controlled Terminology）\n\nAEOUT 使用的受控术语代码为 **C66768**（Outcome of Event）。该术语列表不可扩展（Extensible: No），允许的提交值包括：\n\n| 提交值 | 定义 |\n|--------|------|\n| FATAL | 因不良事件导致生命终止 |\n| NOT RECOVERED/NOT RESOLVED | 事件未改善或未恢复 |\n| RECOVERED/RESOLVED WITH SEQUELAE | 受试者已恢复但留有后遗症 |\n| RECOVERED/RESOLVED | 事件已改善或恢复 |\n| RECOVERING/RESOLVING | 事件正在改善中 |\n| UNKNOWN | 未知、未观察到、未记录或拒绝回答 |\n\n[Source: terminology/core/ae.md]",
      "elapsed_s": 3.89
    },
    {
      "id": "q47",
      "category": "mixed",
      "question": "How do QS (Questionnaires) domains handle instrument-specific variables using QSCAT, and what role does QSTESTCD play in organizing question-level data?",
      "source_recall": 1.0,
      "source_hits": [
        "domains/QS/spec.md",
        "domains/QS/assumptions.md"
      ],
      "source_misses": [],
      "top5_sources": [
        "VARIABLE_INDEX.md",
        "domains/QS/spec.md",
        "chapters/ch04_general_assumptions.md",
        "chapters/ch08_relationships.md",
        "domains/SUPPQUAL/examples.md"
      ],
      "top5_similarities": [
        0.6339,
        0.6923,
        0.6635,
        0.5798,
        0.6612
      ],
      "fact_recall": 1.0,
      "fact_hits": [
        "QSTESTCD",
        "QSCAT",
        "Topic"
      ],
      "fact_misses": [],
      "answer_preview": "## QS 域中 QSCAT 和 QSTESTCD 的作用\n\n### QSCAT — 问卷分类变量\n\n**QSCAT（Category of Question）** 是 QS 域中的 **Grouping Qualifier** 变量，用于标识每条记录所属的问卷/量表名称。\n\n- **Label:** Category of Question\n- **Type:** Char\n- **Role:** Grouping Qualifier\n- **Core:** Req（必需）\n- **Controlled Terms:** C100129\n\n**[Source: domains/QS/spec.md — QSCAT]**\n\n**CDISC Notes 说明：** QSCAT 用于指定 QSTEST 和 QSTESTCD 所标识的问题属于哪个问卷。示例值包括 \"ADAS-COG\"、\"MDS-UPDRS\" 等。\n\n**[Source: domains/QS/spec.md — QSCAT]**\n\n**QSCAT 在组织数据中的关键作用：**\n\n1. **标识问卷归属** — 当 QS 域包含多个问卷的数据时，QSCAT 区分每条记录属于哪个问卷（如 BPI、ADAS-COG、SF-36 等）。\n\n2. **支持域拆分** — 根据 SDTMIG 第 4.1.7 节，赞助方可以按 QSC",
      "usage": {
        "prompt_tokens": 16857,
        "completion_tokens": 1094,
        "total_tokens": 17951
      },
      "model": "deepseek/deepseek-chat",
      "answer": "## QS 域中 QSCAT 和 QSTESTCD 的作用\n\n### QSCAT — 问卷分类变量\n\n**QSCAT（Category of Question）** 是 QS 域中的 **Grouping Qualifier** 变量，用于标识每条记录所属的问卷/量表名称。\n\n- **Label:** Category of Question\n- **Type:** Char\n- **Role:** Grouping Qualifier\n- **Core:** Req（必需）\n- **Controlled Terms:** C100129\n\n**[Source: domains/QS/spec.md — QSCAT]**\n\n**CDISC Notes 说明：** QSCAT 用于指定 QSTEST 和 QSTESTCD 所标识的问题属于哪个问卷。示例值包括 \"ADAS-COG\"、\"MDS-UPDRS\" 等。\n\n**[Source: domains/QS/spec.md — QSCAT]**\n\n**QSCAT 在组织数据中的关键作用：**\n\n1. **标识问卷归属** — 当 QS 域包含多个问卷的数据时，QSCAT 区分每条记录属于哪个问卷（如 BPI、ADAS-COG、SF-36 等）。\n\n2. **支持域拆分** — 根据 SDTMIG 第 4.1.7 节，赞助方可以按 QSCAT 的值将 QS 域拆分为多个物理数据集（例如 QS36 存放 SF-36 数据）。拆分时 QSCAT 不能为空。\n\n   **[Source: chapters/ch04_general_assumptions.md — 4.1.7 Splitting Domains]**\n\n3. **作为 SUPPQUAL 的链接键** — 在 SUPPQUAL 补充数据集中，IDVAR 可以设为 QSCAT，从而为特定问卷的所有记录添加补充变量（如问卷语言 QSLANG）。\n\n   **[Source: domains/SUPPQUAL/examples.md — Example 2]**\n\n4. **QRS 命名规则** — QSCAT 的值可以是缩写或全称，例如 \"ADAS-COG\"、\"BPI SHORT FORM\"、\"APACHE II\"。赞助方应始终参考 CDISC 受控术语。\n\n   **[Source: domains/QS/assumptions.md — item_1]**\n\n---\n\n### QSTESTCD — 问题短名称\n\n**QSTESTCD（Question Short Name）** 是 QS 域的 **Topic** 变量，用于唯一标识每个问卷中的每个问题。\n\n- **Label:** Question Short Name\n- **Type:** Char\n- **Role:** Topic\n- **Core:** Req（必需）\n- **Controlled Terms:** 每个问卷有独立的受控术语列表\n\n**[Source: domains/QS/spec.md — QSTESTCD]**\n\n**CDISC Notes 说明：**\n- QSTESTCD 是 QSTEST 的短名称，可作为将数据集从垂直格式转换为水平格式时的列名。\n- 长度不超过 8 个字符，不能以数字开头，只能包含字母、数字和下划线。\n- 受控术语按问卷分别发布。示例值：\"ADCCMD01\"、\"BPR0103\"。\n\n**[Source: domains/QS/spec.md — QSTESTCD]**\n\n**QSTESTCD 在组织问题级数据中的作用：**\n\n1. **Topic 变量** — 作为观察的主题，标识每条记录具体是哪个问题。\n\n2. **与 QSTEST 配对** — QSTESTCD 是短代码，QSTEST 是完整的问题文本，两者一一对应。\n\n3. **支持垂直数据结构** — QS 域采用\"每个问卷 × 每个问题 × 每个时间点 × 每个访视 × 每个受试者一条记录\"的结构，QSTESTCD 确保每个问题可被唯一识别。\n\n   **[Source: Structured Facts — QS domain]**\n\n4. **受控术语按问卷独立发布** — 每个 QRS 量表都有自己独立的 QSTESTCD/QSTEST 术语列表，由 CDISC SDS QRS 子团队维护。\n\n   **[Source: domains/QS/assumptions.md — item_9]**\n\n---\n\n### 两者协同工作\n\n| 层级 | 变量 | 作用 |\n|------|------|------|\n| 问卷级 | QSCAT | 标识记录属于哪个问卷（如 \"ADAS-COG\"） |\n| 问题级 | QSTESTCD | 标识该问卷中的具体问题（如 \"ADCCMD01\"） |\n| 问题文本 | QSTEST | 问题的完整描述文本 |\n\n**示例数据逻辑：**\n- QSCAT = \"ADAS-COG\" 表示所有记录来自 ADAS-COG 量表\n- QSTESTCD = \"ADCCMD01\" 表示该记录是 ADAS-COG 的第 1 个问题\n- QSTEST = \"Word Recall Task\" 是该问题的完整名称\n\n**总结：** QSCAT 在问卷层面进行分组和标识，支持域拆分和 SUPPQUAL 链接；QSTESTCD 在问题层面作为 Topic 变量唯一标识每个问题，两者共同构成了 QS 域中问卷数据的层级组织架构。\n\n---\n\n**Authoritative correction (SDTM metadata):**\n- QSCAT appears in exactly 1 SDTM domains.\n- QS contains exactly 35 variables.",
      "elapsed_s": 11.47
    },
    {
      "id": "q48",
      "category": "mixed",
      "question": "What is the FATESTCD variable's controlled terminology codelist code in the FA domain, and give examples of standard FA test codes?",
      "source_recall": 1.0,
      "source_hits": [
        "domains/FA/spec.md"
      ],
      "source_misses": [],
      "top5_sources": [
        "domains/FA/spec.md",
        "terminology/core/findings_about.md",
        "domains/FA/assumptions.md",
        "domains/FA/spec.md",
        "chapters/ch04_general_assumptions.md"
      ],
      "top5_similarities": [
        0.678,
        0.4042,
        0.6327,
        0.6766,
        0.5692
      ],
      "fact_recall": 1.0,
      "fact_hits": [
        "FATESTCD",
        "C101832"
      ],
      "fact_misses": [],
      "answer_preview": "根据检索到的上下文，FA 域中 **FATESTCD** 变量的受控术语 codelist 代码是 **C101832**（Findings About Test Code）[Source: domains/FA/spec.md — Controlled Terminology; domains/FA/spec.md — FATESTCD]。\n\n该 codelist 是可扩展的（Extensible: Yes）[Source: terminology/core/findings_about.md]。\n\n标准 FA test code 示例包括（来自 C101832 codelist）[Source: terminology/core/findings_about.md]：\n\n| FATESTCD | FATEST |\n|----------|--------|\n| SEV | Severity/Intensity |\n| OCCUR | Occurrence Indicator |\n| TOXGR | Toxicity Grade |\n| ACNDEV | Action Taken With Device |\n| ACNSBJ | Action Taken With Subject |\n| CUMEXP | Cumulative Exposure |\n| BIOPSIND | Bi",
      "usage": {
        "prompt_tokens": 16140,
        "completion_tokens": 316,
        "total_tokens": 16456
      },
      "model": "deepseek/deepseek-chat",
      "answer": "根据检索到的上下文，FA 域中 **FATESTCD** 变量的受控术语 codelist 代码是 **C101832**（Findings About Test Code）[Source: domains/FA/spec.md — Controlled Terminology; domains/FA/spec.md — FATESTCD]。\n\n该 codelist 是可扩展的（Extensible: Yes）[Source: terminology/core/findings_about.md]。\n\n标准 FA test code 示例包括（来自 C101832 codelist）[Source: terminology/core/findings_about.md]：\n\n| FATESTCD | FATEST |\n|----------|--------|\n| SEV | Severity/Intensity |\n| OCCUR | Occurrence Indicator |\n| TOXGR | Toxicity Grade |\n| ACNDEV | Action Taken With Device |\n| ACNSBJ | Action Taken With Subject |\n| CUMEXP | Cumulative Exposure |\n| BIOPSIND | Biopsy Specimen Taken Indicator |\n| BIOPSNUM | Number of Biopsy Specimens Taken |\n\n此外，根据 FA 域的假设，当 FA 用于表示事件或干预的某个部分的发现时（即评估时间与整个事件不同），FATESTCD 的值应与相应事件或干预域中的变量名相同 [Source: domains/FA/assumptions.md — item_4]。例如，SEV 和 OCCUR 分别来源于 Events 类的变量名 `--SEV` 和 `--OCCUR` [Source: domains/FA/examples.md — Example 1]。\n\n---\n\n**Authoritative correction (SDTM metadata):**\n- FA contains exactly 30 variables.",
      "elapsed_s": 4.81
    },
    {
      "id": "s01",
      "category": "single_domain",
      "question": "In the DM domain, what is the controlled terminology codelist code for the SEX variable, and what are its four permitted submission values?",
      "source_recall": 1.0,
      "source_hits": [
        "terminology/core/dm.md",
        "domains/DM/spec.md"
      ],
      "source_misses": [],
      "top5_sources": [
        "domains/DM/spec.md",
        "terminology/core/dm.md",
        "domains/DM/assumptions.md",
        "domains/DM/spec.md",
        "chapters/ch04_general_assumptions.md"
      ],
      "top5_similarities": [
        0.6528,
        0.5864,
        0.556,
        0.5862,
        0.5688
      ],
      "fact_recall": 1.0,
      "fact_hits": [
        "C66731",
        "F",
        "M",
        "U",
        "UNDIFFERENTIATED"
      ],
      "fact_misses": [],
      "answer_preview": "根据检索到的上下文，DM 域中 **SEX** 变量的受控术语 codelist 代码是 **C66731**，其四个允许的提交值（CDISC Submission Value）为：\n\n- **F** (Female)\n- **M** (Male)\n- **U** (UNK; Unknown)\n- **UNDIFFERENTIATED**\n\n**[Source: domains/DM/spec.md — SEX; terminology/core/dm.md — Sex (C66731)]**",
      "usage": {
        "prompt_tokens": 14357,
        "completion_tokens": 102,
        "total_tokens": 14459
      },
      "model": "deepseek/deepseek-chat",
      "answer": "根据检索到的上下文，DM 域中 **SEX** 变量的受控术语 codelist 代码是 **C66731**，其四个允许的提交值（CDISC Submission Value）为：\n\n- **F** (Female)\n- **M** (Male)\n- **U** (UNK; Unknown)\n- **UNDIFFERENTIATED**\n\n**[Source: domains/DM/spec.md — SEX; terminology/core/dm.md — Sex (C66731)]**",
      "elapsed_s": 2.47
    },
    {
      "id": "s02",
      "category": "concept",
      "question": "What is the SUPPQUAL variable QNAM and what character constraints apply to it? What is the maximum length and what characters are allowed?",
      "source_recall": 1.0,
      "source_hits": [
        "domains/SUPPQUAL/spec.md",
        "model/06_relationship_datasets.md"
      ],
      "source_misses": [],
      "top5_sources": [
        "domains/SUPPQUAL/spec.md",
        "domains/SUPPQUAL/spec.md",
        "domains/SUPPQUAL/spec.md",
        "domains/SUPPQUAL/spec.md",
        "chapters/ch04_general_assumptions.md"
      ],
      "top5_similarities": [
        0.6726,
        0.6267,
        0.5758,
        0.4786,
        0.5437
      ],
      "fact_recall": 0.6,
      "fact_hits": [
        "QNAM",
        "letters, numbers, or underscores",
        "Qualifier Variable Name"
      ],
      "fact_misses": [
        "8 characters",
        "cannot start with a number"
      ],
      "answer_preview": "根据 SDTMIG v3.4 和 SDTM v2.0 模型，**QNAM**（Qualifier Variable Name）是 SUPPQUAL（Supplemental Qualifiers）数据集中的一个变量，用于存储补充限定符变量的短名称。\n\n## QNAM 定义\n\n| 属性 | 值 |\n|------|-----|\n| **Label** | Qualifier Variable Name |\n| **Type** | Char |\n| **Role** | Topic |\n| **Core** | Req |\n| **CDISC Notes** | 限定符变量的短名称，用作父域数据视图中的列名。该值通常是申办方操作数据集中的列名。 |\n\n**[Source: domains/SUPPQUAL/spec.md — QNAM]**\n\n## 字符约束\n\nQNAM 受以下字符限制：\n\n1. **最大长度：8 个字符** — QNAM 的值不能超过 8 个字符。\n   **[Source: domains/SUPPQUAL/spec.md — QNAM]**\n\n2. **不能以数字开头** — 例如，\"1TEST\" 是无效的。\n   **[Source: domains/SUPPQUAL/spec.md — QNAM]**\n\n3. **允许的字符** — 只能包含字母、数字或下划",
      "usage": {
        "prompt_tokens": 15412,
        "completion_tokens": 486,
        "total_tokens": 15898
      },
      "model": "deepseek/deepseek-chat",
      "answer": "根据 SDTMIG v3.4 和 SDTM v2.0 模型，**QNAM**（Qualifier Variable Name）是 SUPPQUAL（Supplemental Qualifiers）数据集中的一个变量，用于存储补充限定符变量的短名称。\n\n## QNAM 定义\n\n| 属性 | 值 |\n|------|-----|\n| **Label** | Qualifier Variable Name |\n| **Type** | Char |\n| **Role** | Topic |\n| **Core** | Req |\n| **CDISC Notes** | 限定符变量的短名称，用作父域数据视图中的列名。该值通常是申办方操作数据集中的列名。 |\n\n**[Source: domains/SUPPQUAL/spec.md — QNAM]**\n\n## 字符约束\n\nQNAM 受以下字符限制：\n\n1. **最大长度：8 个字符** — QNAM 的值不能超过 8 个字符。\n   **[Source: domains/SUPPQUAL/spec.md — QNAM]**\n\n2. **不能以数字开头** — 例如，\"1TEST\" 是无效的。\n   **[Source: domains/SUPPQUAL/spec.md — QNAM]**\n\n3. **允许的字符** — 只能包含字母、数字或下划线（letters, numbers, or underscores）。不允许使用其他字符。\n   **[Source: domains/SUPPQUAL/spec.md — QNAM]**\n\n## 与 --TESTCD 的一致性\n\nQNAM 在 SUPP-- 数据集中起到与 --TESTCD 在 Findings 域中相同的作用。因此，QNAM 的值受与 --TESTCD 相同的限制：\n- 限制为 8 个字符\n- 不能以数字开头\n- 只能包含字母、数字或下划线\n\n这是为了确保与 SAS V5 传输文件格式的兼容性。\n**[Source: chapters/ch04_general_assumptions.md — 4.2.1 Variable-Naming Conventions]**\n\n## 总结\n\n| 约束 | 规则 |\n|------|------|\n| 最大长度 | 8 个字符 |\n| 首字符 | 不能是数字 |\n| 允许字符 | 字母（A-Z, a-z）、数字（0-9）、下划线（_） |\n| 禁止字符 | 空格、连字符、特殊符号等 |",
      "elapsed_s": 5.34
    },
    {
      "id": "s03",
      "category": "cross_domain",
      "question": "The DM variable RFXSTDTC is defined as equal to the earliest value of which variable in the EX domain? Similarly, RFXENDTC is equal to the latest value of which EX variable (or which fallback variable if that is not collected)?",
      "source_recall": 1.0,
      "source_hits": [
        "domains/DM/spec.md",
        "domains/EX/spec.md"
      ],
      "source_misses": [],
      "top5_sources": [
        "domains/DM/spec.md",
        "domains/EX/spec.md",
        "domains/DM/assumptions.md",
        "domains/DM/spec.md",
        "domains/DM/spec.md"
      ],
      "top5_similarities": [
        0.6568,
        0.5803,
        0.6371,
        0.6269,
        0.5537
      ],
      "fact_recall": 0.6667,
      "fact_hits": [
        "EXSTDTC",
        "RFXSTDTC",
        "EXENDTC",
        "RFXENDTC"
      ],
      "fact_misses": [
        "earliest",
        "latest"
      ],
      "answer_preview": "根据检索到的上下文：\n\n- **RFXSTDTC** 定义为等于 EX 域中 **EXSTDTC** 的最早值。  \n  **[Source: domains/DM/spec.md -- RFXSTDTC]**\n\n- **RFXENDTC** 定义为等于 EX 域中 **EXENDTC** 的最新值；如果 EXENDTC 未收集或缺失，则回退为 EXSTDTC 的最新值。  \n  **[Source: domains/DM/spec.md -- RFXENDTC]**",
      "usage": {
        "prompt_tokens": 14665,
        "completion_tokens": 112,
        "total_tokens": 14777
      },
      "model": "deepseek/deepseek-chat",
      "answer": "根据检索到的上下文：\n\n- **RFXSTDTC** 定义为等于 EX 域中 **EXSTDTC** 的最早值。  \n  **[Source: domains/DM/spec.md -- RFXSTDTC]**\n\n- **RFXENDTC** 定义为等于 EX 域中 **EXENDTC** 的最新值；如果 EXENDTC 未收集或缺失，则回退为 EXSTDTC 的最新值。  \n  **[Source: domains/DM/spec.md -- RFXENDTC]**",
      "elapsed_s": 2.2
    },
    {
      "id": "s04",
      "category": "mixed",
      "question": "In the AE domain, what is the controlled terminology codelist code for the AEACN (Action Taken with Study Treatment) variable, and what ICH E2B example values does the CDISC Notes field list for this variable?",
      "source_recall": 1.0,
      "source_hits": [
        "domains/AE/spec.md",
        "terminology/core/ae.md"
      ],
      "source_misses": [],
      "top5_sources": [
        "domains/AE/spec.md",
        "terminology/core/ae.md",
        "domains/AE/spec.md",
        "domains/AE/assumptions.md",
        "domains/AE/spec.md"
      ],
      "top5_similarities": [
        0.7623,
        0.5455,
        0.681,
        0.676,
        0.6262
      ],
      "fact_recall": 1.0,
      "fact_hits": [
        "C66767",
        "DRUG WITHDRAWN",
        "DOSE REDUCED",
        "DOSE INCREASED",
        "DOSE NOT CHANGED",
        "UNKNOWN",
        "NOT APPLICABLE"
      ],
      "fact_misses": [],
      "answer_preview": "根据提供的上下文，AEACN（Action Taken with Study Treatment）变量的受控术语编码为 **C66767**。\n\nCDISC Notes 字段列出的 ICH E2B 示例值包括：\n- \"DRUG WITHDRAWN\"\n- \"DOSE REDUCED\"\n- \"DOSE INCREASED\"\n- \"DOSE NOT CHANGED\"\n- \"UNKNOWN\"\n- \"NOT APPLICABLE\"\n\n**[Source: domains/AE/spec.md -- AEACN]**",
      "usage": {
        "prompt_tokens": 14506,
        "completion_tokens": 104,
        "total_tokens": 14610
      },
      "model": "deepseek/deepseek-chat",
      "answer": "根据提供的上下文，AEACN（Action Taken with Study Treatment）变量的受控术语编码为 **C66767**。\n\nCDISC Notes 字段列出的 ICH E2B 示例值包括：\n- \"DRUG WITHDRAWN\"\n- \"DOSE REDUCED\"\n- \"DOSE INCREASED\"\n- \"DOSE NOT CHANGED\"\n- \"UNKNOWN\"\n- \"NOT APPLICABLE\"\n\n**[Source: domains/AE/spec.md -- AEACN]**",
      "elapsed_s": 2.17
    },
    {
      "id": "s05",
      "category": "single_domain",
      "question": "In the VS domain, what is the controlled terminology codelist code for the VSTESTCD variable? Name the codelist, state whether it is extensible, and give three example TESTCD values listed for blood pressure and heart rate.",
      "source_recall": 1.0,
      "source_hits": [
        "domains/VS/spec.md",
        "terminology/core/vs.md"
      ],
      "source_misses": [],
      "top5_sources": [
        "domains/VS/spec.md",
        "terminology/core/vs.md",
        "chapters/ch04_general_assumptions.md",
        "chapters/ch04_general_assumptions.md",
        "domains/IS/assumptions.md"
      ],
      "top5_similarities": [
        0.6639,
        0.4761,
        0.5932,
        0.5578,
        0.5883
      ],
      "fact_recall": 1.0,
      "fact_hits": [
        "C66741",
        "Vital Signs Test Code",
        "Extensible: Yes",
        "SYSBP",
        "DIABP",
        "HR"
      ],
      "fact_misses": [],
      "answer_preview": "Based on the retrieved context, here is the information for the VSTESTCD variable in the VS domain:\n\n- **Codelist Code:** C66741\n- **Codelist Name:** Vital Signs Test Code\n- **Extensible:** The context does not explicitly state whether this codelist is extensible. (Note: The context for a different codelist, C66770, explicitly states \"Extensible: Yes,\" but no such statement is provided for C66741 in the retrieved text.)\n- **Example TESTCD values:** The context does not provide the full list of values for the C66741 codelist. However, based on the example data in the VS domain, three TESTCD val",
      "usage": {
        "prompt_tokens": 14291,
        "completion_tokens": 264,
        "total_tokens": 14555
      },
      "model": "deepseek/deepseek-chat",
      "answer": "Based on the retrieved context, here is the information for the VSTESTCD variable in the VS domain:\n\n- **Codelist Code:** C66741\n- **Codelist Name:** Vital Signs Test Code\n- **Extensible:** The context does not explicitly state whether this codelist is extensible. (Note: The context for a different codelist, C66770, explicitly states \"Extensible: Yes,\" but no such statement is provided for C66741 in the retrieved text.)\n- **Example TESTCD values:** The context does not provide the full list of values for the C66741 codelist. However, based on the example data in the VS domain, three TESTCD values for blood pressure and heart rate are:\n    - SYSBP (Systolic Blood Pressure)\n    - DIABP (Diastolic Blood Pressure)\n    - PULSE (Pulse Rate)\n\n**[Source: domains/VS/spec.md -- Controlled Terminology]** for the codelist code C66741.\n**[Source: domains/VS/spec.md -- VSTESTCD]** for the variable definition and examples.\n**[Source: domains/VS/examples.md -- Example 1]** for the example data showing SYSBP, DIABP, and PULSE.\n\n---\n\n**Authoritative correction (SDTM metadata):**\n- VS contains exactly 38 variables.",
      "elapsed_s": 3.39
    },
    {
      "id": "q54",
      "category": "single_domain",
      "question": "In the DV (Protocol Deviations) domain, which observation class does it belong to and what is the Topic variable DVTERM?",
      "source_recall": 1.0,
      "source_hits": [
        "domains/DV/spec.md"
      ],
      "source_misses": [],
      "top5_sources": [
        "domains/DV/spec.md",
        "domains/DV/spec.md",
        "domains/DV/spec.md",
        "domains/DV/spec.md",
        "domains/DV/assumptions.md"
      ],
      "top5_similarities": [
        0.7536,
        0.664,
        0.6494,
        0.5789,
        0.7551
      ],
      "fact_recall": 1.0,
      "fact_hits": [
        "Events",
        "DVTERM",
        "Protocol Deviation Term",
        "Topic"
      ],
      "fact_misses": [],
      "answer_preview": "根据检索到的上下文，DV（Protocol Deviations）域属于 **Events** 观察类（Observation Class），其 Topic 变量为 **DVTERM**。\n\n**详细说明：**\n\n1. **Observation Class（观察类）**：DV 域被明确归类为 Events 模型。上下文指出：\"The DV domain is an Events model for collected protocol deviations\" **[Source: domains/DV/assumptions.md -- item_1]**。在 VARIABLE_INDEX.md 中，DV 域也被标注为 \"DV — Protocol Deviations (Events)\" **[Source: VARIABLE_INDEX.md -- DV — Protocol Deviations (Events)]**。\n\n2. **Topic 变量 DVTERM**：DVTERM 在 DV 域中承担 Topic 角色。其定义如下：\n   - **Label（标签）**：Protocol Deviation Term\n   - **Type（类型）**：Char（字符型）\n   - **Role（角色）**：Topic\n   - **Core（核心性）**：Req（必需）\n",
      "usage": {
        "prompt_tokens": 13490,
        "completion_tokens": 430,
        "total_tokens": 13920
      },
      "model": "deepseek/deepseek-chat",
      "answer": "根据检索到的上下文，DV（Protocol Deviations）域属于 **Events** 观察类（Observation Class），其 Topic 变量为 **DVTERM**。\n\n**详细说明：**\n\n1. **Observation Class（观察类）**：DV 域被明确归类为 Events 模型。上下文指出：\"The DV domain is an Events model for collected protocol deviations\" **[Source: domains/DV/assumptions.md -- item_1]**。在 VARIABLE_INDEX.md 中，DV 域也被标注为 \"DV — Protocol Deviations (Events)\" **[Source: VARIABLE_INDEX.md -- DV — Protocol Deviations (Events)]**。\n\n2. **Topic 变量 DVTERM**：DVTERM 在 DV 域中承担 Topic 角色。其定义如下：\n   - **Label（标签）**：Protocol Deviation Term\n   - **Type（类型）**：Char（字符型）\n   - **Role（角色）**：Topic\n   - **Core（核心性）**：Req（必需）\n   - **Controlled Terms（受控术语）**：无（自由文本）\n   - **CDISC Notes（CDISC 注释）**：Verbatim name of the protocol deviation criterion. Example: \"IVRS PROCESS DEVIATION - NO DOSE CALL PERFORMED\". DVTERM values will map to the controlled terminology in DVDECOD (e.g., \"TREATMENT DEVIATION\"). **[Source: domains/DV/spec.md -- DVTERM]**\n\n3. **Events 类的 Topic 变量规则**：根据通用假设，Events 观察类的 Topic 变量为 --TERM，通常存储为原始文本（verbatim text） **[Source: chapters/ch04_general_assumptions.md -- 4.3.6 Storing Topic Variables for General Domain Models]**。DVTERM 正是遵循这一模式。\n\n**总结**：DV 域是 Events 观察类的一个域，其 Topic 变量 DVTERM 是必需的字符型变量，用于记录方案偏离的原始描述文本。",
      "elapsed_s": 4.69
    },
    {
      "id": "q55",
      "category": "single_domain",
      "question": "What is the structure and observation class of the DS (Disposition) domain, and what is the role of the DSTERM variable?",
      "source_recall": 1.0,
      "source_hits": [
        "domains/DS/spec.md"
      ],
      "source_misses": [],
      "top5_sources": [
        "domains/DS/spec.md",
        "domains/DS/spec.md",
        "domains/DS/spec.md",
        "domains/DS/spec.md",
        "domains/DS/assumptions.md"
      ],
      "top5_similarities": [
        0.6293,
        0.5718,
        0.5441,
        0.5266,
        0.5828
      ],
      "fact_recall": 1.0,
      "fact_hits": [
        "Events",
        "DSTERM",
        "Topic",
        "disposition"
      ],
      "fact_misses": [],
      "answer_preview": "根据 SDTMIG v3.4 和 SDTM v2.0 模型，DS（Disposition）域的结构和观察类定义如下：\n\n## DS 域的结构与观察类\n\n- **Domain Code:** DS\n- **Domain Name:** Disposition\n- **Class:** Events（事件类）\n- **Structure:** One record per disposition status or protocol milestone per subject（每个受试者每个处置状态或方案里程碑一条记录）**[Source: Structured Facts]**\n- **变量数量:** 共 16 个变量 **[Source: Structured Facts]**\n\n## DSTERM 变量的角色\n\n| 属性 | 值 |\n|------|-----|\n| **变量名** | DSTERM |\n| **Label** | Reported Term for the Disposition Event |\n| **Type** | Char（字符型） |\n| **Role** | Topic（主题变量） |\n| **Core** | Req（必需） |\n| **Controlled Terms** | 无（自由文本） |\n| **CDISC Notes** | 处置事件或",
      "usage": {
        "prompt_tokens": 14752,
        "completion_tokens": 485,
        "total_tokens": 15237
      },
      "model": "deepseek/deepseek-chat",
      "answer": "根据 SDTMIG v3.4 和 SDTM v2.0 模型，DS（Disposition）域的结构和观察类定义如下：\n\n## DS 域的结构与观察类\n\n- **Domain Code:** DS\n- **Domain Name:** Disposition\n- **Class:** Events（事件类）\n- **Structure:** One record per disposition status or protocol milestone per subject（每个受试者每个处置状态或方案里程碑一条记录）**[Source: Structured Facts]**\n- **变量数量:** 共 16 个变量 **[Source: Structured Facts]**\n\n## DSTERM 变量的角色\n\n| 属性 | 值 |\n|------|-----|\n| **变量名** | DSTERM |\n| **Label** | Reported Term for the Disposition Event |\n| **Type** | Char（字符型） |\n| **Role** | Topic（主题变量） |\n| **Core** | Req（必需） |\n| **Controlled Terms** | 无（自由文本） |\n| **CDISC Notes** | 处置事件或方案里程碑的逐字名称。DSTERM 中的某些术语将与 DSDECOD 匹配，但其他术语（如 \"Subject moved\"）将映射到 DSDECOD 中的受控术语（如 \"LOST TO FOLLOW-UP\"）**[Source: domains/DS/spec.md]** |\n\n## 关键说明\n\n1. **Topic 角色**：DSTERM 是 DS 域的主题变量，描述观察的焦点——即具体的处置事件或方案里程碑的名称 **[Source: model/01_concepts_and_terms.md]**。\n\n2. **与 DSDECOD 的关系**：DSTERM 是原始报告术语（逐字文本），而 DSDECOD 是标准化编码术语（使用受控术语）。例如，DSTERM = \"Subject moved\" 可编码为 DSDECOD = \"LOST TO FOLLOW-UP\" **[Source: domains/DS/assumptions.md item_3]**。\n\n3. **DS 域的特殊性**：与一般事件类域不同，DS 域允许每个受试者每个处置状态或方案里程碑一条记录，不要求将多个主题值拆分为多条记录 **[Source: chapters/ch04_general_assumptions.md §4.2.8.1]**。",
      "elapsed_s": 5.44
    },
    {
      "id": "q56",
      "category": "single_domain",
      "question": "In the SU (Substance Use) domain, what observation class is it and what is the SUTRT variable?",
      "source_recall": 1.0,
      "source_hits": [
        "domains/SU/spec.md"
      ],
      "source_misses": [],
      "top5_sources": [
        "domains/SU/spec.md",
        "domains/SU/spec.md",
        "domains/SU/spec.md",
        "domains/SU/spec.md",
        "VARIABLE_INDEX.md"
      ],
      "top5_similarities": [
        0.6606,
        0.6408,
        0.6341,
        0.6277,
        0.6706
      ],
      "fact_recall": 1.0,
      "fact_hits": [
        "Interventions",
        "SUTRT",
        "Reported Name of Substance",
        "Topic"
      ],
      "fact_misses": [],
      "answer_preview": "根据检索到的上下文，SU（Substance Use）域属于 **Interventions**（干预）观察类。\n\n**[Source: VARIABLE_INDEX.md — SU — Substance Use (Interventions)]**\n\nSUTRT 变量的定义如下：\n\n- **Label:** Reported Name of Substance\n- **Type:** Char\n- **Role:** Topic\n- **Core:** Req\n- **Controlled Terms:** 无\n- **CDISC Notes:** 物质名称。示例：\"CIGARETTES\"、\"COFFEE\"。\n\n**[Source: domains/SU/spec.md — SUTRT]**\n\nSUTRT 是 SU 数据集的主题变量（Topic variable），为必填变量，必须有一个值，用于捕获收集到的物质名称（可以是逐字报告或预设文本）。\n\n**[Source: domains/SU/assumptions.md — item_2a]**",
      "usage": {
        "prompt_tokens": 12692,
        "completion_tokens": 179,
        "total_tokens": 12871
      },
      "model": "deepseek/deepseek-chat",
      "answer": "根据检索到的上下文，SU（Substance Use）域属于 **Interventions**（干预）观察类。\n\n**[Source: VARIABLE_INDEX.md — SU — Substance Use (Interventions)]**\n\nSUTRT 变量的定义如下：\n\n- **Label:** Reported Name of Substance\n- **Type:** Char\n- **Role:** Topic\n- **Core:** Req\n- **Controlled Terms:** 无\n- **CDISC Notes:** 物质名称。示例：\"CIGARETTES\"、\"COFFEE\"。\n\n**[Source: domains/SU/spec.md — SUTRT]**\n\nSUTRT 是 SU 数据集的主题变量（Topic variable），为必填变量，必须有一个值，用于捕获收集到的物质名称（可以是逐字报告或预设文本）。\n\n**[Source: domains/SU/assumptions.md — item_2a]**",
      "elapsed_s": 3.39
    },
    {
      "id": "q57",
      "category": "single_domain",
      "question": "What is the PR (Procedures) domain used for, and what is the PRTRT topic variable along with its Core designation?",
      "source_recall": 1.0,
      "source_hits": [
        "domains/PR/spec.md"
      ],
      "source_misses": [],
      "top5_sources": [
        "domains/PR/spec.md",
        "domains/PR/spec.md",
        "domains/PR/spec.md",
        "domains/PR/spec.md",
        "domains/PR/examples.md"
      ],
      "top5_similarities": [
        0.7274,
        0.6198,
        0.6094,
        0.6051,
        0.5826
      ],
      "fact_recall": 1.0,
      "fact_hits": [
        "Interventions",
        "PRTRT",
        "Reported Name of Procedure",
        "Req"
      ],
      "fact_misses": [],
      "answer_preview": "根据 SDTMIG v3.4 的定义：\n\n**PR（Procedures）域**用于表示对受试者执行的操作程序（procedures）信息。该域基于 Interventions（干预）观察类，结构为每个受试者每次记录的操作程序一条记录。操作程序的范围从可观察到微观水平，无论其生理效应程度如何，所有收集到的操作程序都应在此域中表示。例如：疾病筛查（如乳房X光检查）、内窥镜检查、诊断性测试、治疗性操作以及外科手术等。从操作程序中获得的测量结果应放在相应的 Findings 域中（如 MI、EG 等）**[Source: domains/PR/assumptions.md — item_1]**。\n\n**PRTRT（Reported Name of Procedure）** 是 PR 域的 **Topic（主题）** 变量，其 **Core（核心性）** 为 **Req（必需）**。该变量用于记录操作程序的名称，可以是预先打印在 CRF 上的名称，也可以是收集到的原始名称（verbatim term）**[Source: domains/PR/spec.md — PRTRT]**。",
      "usage": {
        "prompt_tokens": 14781,
        "completion_tokens": 236,
        "total_tokens": 15017
      },
      "model": "deepseek/deepseek-chat",
      "answer": "根据 SDTMIG v3.4 的定义：\n\n**PR（Procedures）域**用于表示对受试者执行的操作程序（procedures）信息。该域基于 Interventions（干预）观察类，结构为每个受试者每次记录的操作程序一条记录。操作程序的范围从可观察到微观水平，无论其生理效应程度如何，所有收集到的操作程序都应在此域中表示。例如：疾病筛查（如乳房X光检查）、内窥镜检查、诊断性测试、治疗性操作以及外科手术等。从操作程序中获得的测量结果应放在相应的 Findings 域中（如 MI、EG 等）**[Source: domains/PR/assumptions.md — item_1]**。\n\n**PRTRT（Reported Name of Procedure）** 是 PR 域的 **Topic（主题）** 变量，其 **Core（核心性）** 为 **Req（必需）**。该变量用于记录操作程序的名称，可以是预先打印在 CRF 上的名称，也可以是收集到的原始名称（verbatim term）**[Source: domains/PR/spec.md — PRTRT]**。",
      "elapsed_s": 4.46
    },
    {
      "id": "q58",
      "category": "single_domain",
      "question": "Describe the TS (Trial Summary) domain structure and the TSPARMCD variable, including its controlled terminology codelist code and length limit.",
      "source_recall": 1.0,
      "source_hits": [
        "domains/TS/spec.md"
      ],
      "source_misses": [],
      "top5_sources": [
        "domains/TS/spec.md",
        "terminology/core/trial_design.md",
        "VARIABLE_INDEX.md",
        "model/05_study_level_data.md",
        "domains/TS/assumptions.md"
      ],
      "top5_similarities": [
        0.7561,
        0.5199,
        0.715,
        0.5921,
        0.6527
      ],
      "fact_recall": 0.75,
      "fact_hits": [
        "Trial Summary",
        "TSPARMCD",
        "C66738"
      ],
      "fact_misses": [
        "8 characters"
      ],
      "answer_preview": "## TS（Trial Summary）域结构与 TSPARMCD 变量\n\n### TS 域结构\n\nTS（Trial Summary）域属于 **Trial Design** 类，结构为 **每个试验总结参数值一条记录**（One record per trial summary parameter value）。该域共包含 **11 个变量**，用于以结构化格式提交试验的摘要信息，例如试验阶段、方案标题、试验目标等。TS 数据集包含计划的和实际的试验特征。 **[Source: model/05_study_level_data.md]** **[Source: domains/TS/assumptions.md]**\n\nTS 域的 11 个变量如下：\n\n| Order | 变量名 | Label | Type | Role | Core |\n|-------|--------|-------|------|------|------|\n| 1 | STUDYID | Study Identifier | Char | Identifier | Req |\n| 2 | DOMAIN | Domain Abbreviation | Char | Identifier | Req |\n| 3 | TSSEQ | Sequence Number | Num | Identifier |",
      "usage": {
        "prompt_tokens": 12915,
        "completion_tokens": 1103,
        "total_tokens": 14018
      },
      "model": "deepseek/deepseek-chat",
      "answer": "## TS（Trial Summary）域结构与 TSPARMCD 变量\n\n### TS 域结构\n\nTS（Trial Summary）域属于 **Trial Design** 类，结构为 **每个试验总结参数值一条记录**（One record per trial summary parameter value）。该域共包含 **11 个变量**，用于以结构化格式提交试验的摘要信息，例如试验阶段、方案标题、试验目标等。TS 数据集包含计划的和实际的试验特征。 **[Source: model/05_study_level_data.md]** **[Source: domains/TS/assumptions.md]**\n\nTS 域的 11 个变量如下：\n\n| Order | 变量名 | Label | Type | Role | Core |\n|-------|--------|-------|------|------|------|\n| 1 | STUDYID | Study Identifier | Char | Identifier | Req |\n| 2 | DOMAIN | Domain Abbreviation | Char | Identifier | Req |\n| 3 | TSSEQ | Sequence Number | Num | Identifier | Req |\n| 4 | TSGRPID | Group ID | Char | Identifier | Perm |\n| 5 | TSPARMCD | Trial Summary Parameter Short Name | Char | Topic | Req |\n| 6 | TSPARM | Trial Summary Parameter | Char | Synonym Qualifier | Req |\n| 7 | TSVAL | Parameter Value | Char | Result Qualifier | Exp |\n| 8 | TSVALNF | Parameter Value Null Flavor | Char | Result Qualifier | Perm |\n| 9 | TSVALCD | Parameter Value Code | Char | Result Qualifier | Exp |\n| 10 | TSVCDREF | Name of the Reference Terminology | Char | Result Qualifier | Exp |\n| 11 | TSVCDVER | Version of the Reference Terminology | Char | Result Qualifier | Exp |\n\n**[Source: domains/TS/spec.md]** **[Source: VARIABLE_INDEX.md]**\n\n### TSPARMCD 变量定义\n\n| 属性 | 值 |\n|------|-----|\n| **Label** | Trial Summary Parameter Short Name |\n| **Type** | Char |\n| **Role** | Topic |\n| **Core** | Req |\n| **Controlled Terms** | C66738 |\n| **CDISC Notes** | TSPARMCD（TSPARM 的配套变量）限制为 **8 个字符**，且没有特殊字符限制。这些值应简短以便于编程使用，但不期望 TSPARMCD 需要用作变量名。示例：\"AGEMIN\"、\"AGEMAX\"。 |\n\n**[Source: domains/TS/spec.md]**\n\n### 受控术语（C66738）\n\nTSPARMCD 的受控术语代码为 **C66738**（Trial Summary Parameter Test Code），这是一个 **可扩展（Extensible）** 的 codelist。该 codelist 包含大量标准参数代码，例如：\n\n| Code | CDISC Submission Value | CDISC Definition |\n|------|----------------------|------------------|\n| C98703 | ACTSUB | Actual Number of Subjects |\n| C49694 | AGEMAX | Planned Maximum Age of Subjects |\n| C49693 | AGEMIN | Planned Minimum Age of Subjects |\n| C25488 | DOSE | Dose Level; Dose per Administration |\n| C42636 | DOSFRM | Dose Form |\n| C89081 | DOSFRQ | Dosing Frequency |\n| C71137 | DOSRGM | Dose Regimen |\n| C73558 | DOSU | Dose Units |\n| ... | ... | ... |\n\n**[Source: terminology/core/trial_design.md]**\n\n### 长度限制说明\n\nTSPARMCD 限制为 **8 个字符**，且**没有**像 `--TESTCD` 那样的特殊字符限制（不能以数字开头、不能包含字母/数字/下划线以外的字符）。TSPARMCD 的值应简短以便于编程使用，但不期望它们需要用作变量名。 **[Source: chapters/ch04_general_assumptions.md]**\n\n### 关键假设\n\n1. **TS 不包含受试者级别数据**，因此没有类似于受试者级别数据集中 `--SEQ` 变量在每个受试者内唯一的要求。TSSEQ 对于同一参数的每条记录具有不同的值。 **[Source: domains/TS/assumptions.md]**\n\n2. **TSGRPID** 可用于关联 TS 数据集中的任意记录块，最常用于当 TS 数据集包含同一参数的多个记录时。 **[Source: domains/TS/assumptions.md]**\n\n3. **TSVALCD** 仅在 TSVAL 有受控术语时才有代码值。例如，当 TSPARMCD = \"PLANSUB\"（计划受试者数）或 TSPARMCD = \"TITLE\"（试验标题）时，TSVALCD 为空。 **[Source: domains/TS/assumptions.md]**\n\n4. 对于某些试验参数，TS 数据集中可能存在同一参数的**多条记录**。例如，同时涉及安全性和有效性的试验可能有 2 条 TSPARMCD = \"TTYPE\" 的记录，一条 TSVAL = \"SAFETY\"，另一条 TSVAL = \"EFFICACY\"。 **[Source: domains/TS/assumptions.md]**\n\n---\n\n**Authoritative correction (SDTM metadata):**\n- TSPARMCD appears in exactly 1 SDTM domains.\n- TS contains exactly 11 variables.",
      "elapsed_s": 10.29
    },
    {
      "id": "q59",
      "category": "single_domain",
      "question": "In the DD (Death Details) domain, what is the DDTESTCD variable and its controlled terminology codelist code?",
      "source_recall": 1.0,
      "source_hits": [
        "domains/DD/spec.md"
      ],
      "source_misses": [],
      "top5_sources": [
        "domains/DD/spec.md",
        "terminology/core/other_part4.md",
        "domains/DD/spec.md",
        "VARIABLE_INDEX.md",
        "domains/DD/spec.md"
      ],
      "top5_similarities": [
        0.766,
        0.6055,
        0.7584,
        0.6406,
        0.7599
      ],
      "fact_recall": 1.0,
      "fact_hits": [
        "DDTESTCD",
        "C116108",
        "Topic"
      ],
      "fact_misses": [],
      "answer_preview": "根据检索到的上下文，DD（Death Details）域中的 **DDTESTCD** 变量定义如下：\n\n- **Label（标签）:** Death Detail Assessment Short Name\n- **Type（类型）:** Char\n- **Role（角色）:** Topic\n- **Core（核心性）:** Req（必需）\n- **Controlled Terms（受控术语）:** C116108\n\n该受控术语代码 C116108 对应的是 \"SDTM Death Diagnosis and Details Test Code\" 术语集，这是一个可扩展（Extensible）的 codelist。其允许值包括（仅列出名称，不附加代码）：\n\n- AGEDTH — Age at Death\n- AUTOPIND — Autopsy Indicator\n- DTHCOIND — Death Certificate Obtained Indicator\n- DTHEXIND — Death Expected Indicator\n- DTHWIND — Death Witnessed Indicator\n- HMROIND — Hospital Medical Record Obtained Indicator\n- INFOSCOD — Information Sourc",
      "usage": {
        "prompt_tokens": 12547,
        "completion_tokens": 286,
        "total_tokens": 12833
      },
      "model": "deepseek/deepseek-chat",
      "answer": "根据检索到的上下文，DD（Death Details）域中的 **DDTESTCD** 变量定义如下：\n\n- **Label（标签）:** Death Detail Assessment Short Name\n- **Type（类型）:** Char\n- **Role（角色）:** Topic\n- **Core（核心性）:** Req（必需）\n- **Controlled Terms（受控术语）:** C116108\n\n该受控术语代码 C116108 对应的是 \"SDTM Death Diagnosis and Details Test Code\" 术语集，这是一个可扩展（Extensible）的 codelist。其允许值包括（仅列出名称，不附加代码）：\n\n- AGEDTH — Age at Death\n- AUTOPIND — Autopsy Indicator\n- DTHCOIND — Death Certificate Obtained Indicator\n- DTHEXIND — Death Expected Indicator\n- DTHWIND — Death Witnessed Indicator\n- HMROIND — Hospital Medical Record Obtained Indicator\n- INFOSCOD — Information Source for Cause of Death\n- LOCDTH — Location of Death\n- PRCDTH — Primary Cause of Death\n- SDTHIND — Sudden Death Indicator\n- SECDTH — Secondary Cause of Death\n\n**[Source: domains/DD/spec.md — DDTESTCD]**  \n**[Source: terminology/core/other_part4.md — SDTM Death Diagnosis and Details Test Code (C116108)]**",
      "elapsed_s": 3.88
    },
    {
      "id": "q60",
      "category": "single_domain",
      "question": "What is the CE (Clinical Events) domain, which observation class does it belong to, and what is the CETERM variable?",
      "source_recall": 1.0,
      "source_hits": [
        "domains/CE/spec.md"
      ],
      "source_misses": [],
      "top5_sources": [
        "domains/CE/spec.md",
        "domains/CE/spec.md",
        "domains/CE/spec.md",
        "domains/CE/spec.md",
        "VARIABLE_INDEX.md"
      ],
      "top5_similarities": [
        0.6749,
        0.6509,
        0.6345,
        0.6182,
        0.6815
      ],
      "fact_recall": 1.0,
      "fact_hits": [
        "Events",
        "CETERM",
        "Topic",
        "Clinical Event"
      ],
      "fact_misses": [],
      "answer_preview": "## CE（Clinical Events）域概述\n\n**CE（Clinical Events）域** 用于收集临床事件数据，这些事件是方案定义的临床关注事件，但不属于不良事件（AE）。例如，在偏头痛研究中，偏头痛本身可能不被视为AE，而是作为临床事件记录在CE域中。CE域也用于追踪作为疗效终点的特定事件（如短暂性脑缺血发作、卒中、死亡等）[Source: domains/CE/assumptions.md, item_1]。\n\n---\n\n## 所属观察类\n\nCE域属于 **Events（事件）观察类**（Events Observation Class）[Source: domains/CE/assumptions.md, item_6]。\n\nEvents观察类的结构为 **\"一条记录一个事件\"**（One Record per Event），代表方案中计划的里程碑事件以及研究期间发生的独立于计划评估的事件、状况或事件[Source: model/02_observation_classes.md, §3.1.2]。\n\n---\n\n## CETERM 变量定义\n\n| 属性 | 值 |\n|------|-----|\n| **变量名** | CETERM |\n| **Order** | 8 |\n| **Label** | Reported Term for the Clinical E",
      "usage": {
        "prompt_tokens": 17293,
        "completion_tokens": 391,
        "total_tokens": 17684
      },
      "model": "deepseek/deepseek-chat",
      "answer": "## CE（Clinical Events）域概述\n\n**CE（Clinical Events）域** 用于收集临床事件数据，这些事件是方案定义的临床关注事件，但不属于不良事件（AE）。例如，在偏头痛研究中，偏头痛本身可能不被视为AE，而是作为临床事件记录在CE域中。CE域也用于追踪作为疗效终点的特定事件（如短暂性脑缺血发作、卒中、死亡等）[Source: domains/CE/assumptions.md, item_1]。\n\n---\n\n## 所属观察类\n\nCE域属于 **Events（事件）观察类**（Events Observation Class）[Source: domains/CE/assumptions.md, item_6]。\n\nEvents观察类的结构为 **\"一条记录一个事件\"**（One Record per Event），代表方案中计划的里程碑事件以及研究期间发生的独立于计划评估的事件、状况或事件[Source: model/02_observation_classes.md, §3.1.2]。\n\n---\n\n## CETERM 变量定义\n\n| 属性 | 值 |\n|------|-----|\n| **变量名** | CETERM |\n| **Order** | 8 |\n| **Label** | Reported Term for the Clinical Event |\n| **Type** | Char（字符型） |\n| **Controlled Terms** | （无受控术语） |\n| **Role** | Topic（主题变量） |\n| **Core** | Req（必需） |\n| **CDISC Notes** | 医学状况或事件的术语。很可能预先印在CRF上。[Source: domains/CE/spec.md, CETERM] |\n\nCETERM 是CE域的主题变量，用于记录临床事件的报告术语。作为Topic角色，它指定了观察的焦点——即具体发生了什么临床事件。该变量是必需的（Core: Req），通常从CRF上预先印制的选项或自由文本输入中获取。",
      "elapsed_s": 5.54
    },
    {
      "id": "q61",
      "category": "single_domain",
      "question": "In the MB (Microbiology Specimen) domain, what is the MBTESTCD variable, what observation class is MB, and what is the codelist code for MBTESTCD?",
      "source_recall": 1.0,
      "source_hits": [
        "domains/MB/spec.md"
      ],
      "source_misses": [],
      "top5_sources": [
        "domains/MB/spec.md",
        "terminology/core/microbiology_part2.md",
        "domains/MB/assumptions.md",
        "domains/MB/examples.md",
        "VARIABLE_INDEX.md"
      ],
