# eval/test_set_kg_value.yml — KG-value 3-arm eval (40 q, 4 families)
# Blind-authored (4 family-writer agents, no access to graph_answer/engine source),
# gold derived deterministically from meta.yaml (eval/gen_kgval_goldset.py),
# reconciled via an independent raw-yaml path (eval/reconcile_kgval_gold.py),
# reviewed by an independent scientist agent (Rule D). expected_facts = gold item
# set for deterministic set-recall (word-boundary, case-sensitive in the analyzer);
# expect_count + card_applies drive the cardinality metric. See KG_VALUE_EVAL_PLAN.md.
- id: ic01
  category: impact_codelist
  question: If the Epoch codelist (C99079) gets revised in an upcoming CDISC release, which SDTM domains and variables would be affected by that change?
  expected_facts:
  - AE
  - AG
  - CE
  - CM
  - CP
  - CV
  - DA
  - DS
  - DV
  - EC
  - EG
  - EX
  - FA
  - FT
  - HO
  - IE
  - IS
  - LB
  - MB
  - MH
  - MI
  - MK
  - ML
  - MS
  - NV
  - OE
  - PC
  - PE
  - PP
  - PR
  - QS
  - RE
  - RP
  - RS
  - SC
  - SE
  - SR
  - SS
  - SU
  - TA
  - TR
  - TU
  - UR
  - VS
  expect_count: 44
  card_applies: true
  expected_sources:
  - terminology/core/general_part2.md
- id: ic02
  category: impact_codelist
  question: We're anticipating an update to the Anatomical Location codelist (C74456). Which SDTM domains and variables draw their values from it and would therefore need to be reviewed?
  expected_facts:
  - AE
  - BE
  - CV
  - EC
  - EX
  - FA
  - MB
  - MI
  - MK
  - MS
  - NV
  - OE
  - PE
  - PR
  - RE
  - SR
  - TU
  - UR
  - VS
  expect_count: 19
  card_applies: true
  expected_sources:
  - terminology/core/general_part1.md
- id: ic03
  category: impact_codelist
  question: Which variables across the SDTM domains reference the Laterality codelist (C99073), so that I can scope the impact if it's modified?
  expected_facts:
  - CV
  - EC
  - EX
  - FA
  - MB
  - MI
  - MK
  - MS
  - NV
  - OE
  - PE
  - PR
  - RE
  - SR
  - TU
  - UR
  - VS
  expect_count: 17
  card_applies: true
  expected_sources:
  - terminology/core/general_part2.md
- id: ic04
  category: impact_codelist
  question: Suppose the Specimen Type codelist (C78734) is updated. What downstream SDTM domains and variables would be impacted by that revision?
  expected_facts:
  - BS
  - CP
  - IS
  - LB
  - MB
  - MI
  - MS
  - PC
  - PP
  - RELSPEC
  - SR
  expect_count: 11
  card_applies: true
  expected_sources:
  - terminology/core/general_part4.md
- id: ic05
  category: impact_codelist
  question: If a new term is added to the Route of Administration Response codelist (C66729), which SDTM variables and domains would I need to check for impact?
  expected_facts:
  - AG
  - CM
  - EC
  - EX
  - PR
  - SU
  expect_count: 6
  card_applies: true
  expected_sources:
  - terminology/core/interventions.md
- id: ic06
  category: impact_codelist
  question: Which SDTM domains and variables are controlled by the Position codelist (C71148) and would be affected if that codelist were revised?
  expected_facts:
  - CV
  - EG
  - FT
  - MK
  - RE
  - VS
  expect_count: 6
  card_applies: true
  expected_sources:
  - terminology/core/interventions.md
- id: ic07
  category: impact_codelist
  question: I need to assess the blast radius of a change to the Genetic Sample Type codelist (C111114). Which SDTM domains and variables use it?
  expected_facts:
  - BS
  - GF
  - RELSPEC
  expect_count: 3
  card_applies: true
  expected_sources:
  - terminology/core/general_part2.md
- id: ic08
  category: impact_codelist
  question: If the SDTM Domain Abbreviation codelist (C66734) is updated, what SDTM variables and domains would be impacted downstream?
  expected_facts:
  - CO
  - RELREC
  - SUPPQUAL
  expect_count: 3
  card_applies: true
  expected_sources:
  - terminology/core/general_part4.md
- id: ic09
  category: impact_codelist
  question: When the Result Type Response codelist (C179588) is revised, which SDTM domains and variables that rely on it would need to be reassessed?
  expected_facts:
  - CP
  - LB
  expect_count: 2
  card_applies: true
  expected_sources:
  - terminology/core/general_part4.md
- id: ic10
  category: impact_codelist
  question: Which SDTM domains and variables reference the PK Units of Measure codelist (C85494), so I can understand what's affected if it changes?
  expected_facts:
  - PC
  - PP
  expect_count: 2
  card_applies: true
  expected_sources:
  - terminology/core/other_part3.md
- id: iv01
  category: impact_variable
  question: Across the SDTM model, in how many domains does the VISIT (Visit Name) variable appear?
  expected_facts:
  - AG
  - BE
  - BS
  - CP
  - CV
  - DA
  - EG
  - FA
  - FT
  - GF
  - IE
  - IS
  - LB
  - MB
  - MI
  - MK
  - ML
  - MS
  - NV
  - OE
  - PC
  - PE
  - PR
  - QS
  - RE
  - RP
  - RS
  - SC
  - SR
  - SS
  - SV
  - TR
  - TU
  - TV
  - UR
  - VS
  expect_count: 36
  card_applies: true
  expected_sources:
  - VARIABLE_INDEX.md
- id: iv02
  category: impact_variable
  question: If we changed the definition of VISITNUM (Visit Number), which SDTM domains would be affected?
  expected_facts:
  - AG
  - BE
  - BS
  - CP
  - CV
  - DA
  - EG
  - FA
  - FT
  - GF
  - IE
  - IS
  - LB
  - MB
  - MI
  - MK
  - ML
  - MS
  - NV
  - OE
  - PC
  - PE
  - PR
  - QS
  - RE
  - RP
  - RS
  - SC
  - SR
  - SS
  - SV
  - TR
  - TU
  - TV
  - UR
  - VS
  expect_count: 36
  card_applies: true
  expected_sources:
  - VARIABLE_INDEX.md
- id: iv03
  category: impact_variable
  question: Which SDTM domains include the SPDEVID (Sponsor Device Identifier) variable?
  expected_facts:
  - AE
  - BE
  - BS
  - EG
  - GF
  - RE
  expect_count: 6
  card_applies: true
  expected_sources:
  - VARIABLE_INDEX.md
- id: iv04
  category: impact_variable
  question: In how many SDTM domains is the NHOID (Non-Host Organism Identifier) variable used?
  expected_facts:
  - GF
  - IS
  - MS
  - OI
  expect_count: 4
  card_applies: true
  expected_sources:
  - VARIABLE_INDEX.md
- id: iv05
  category: impact_variable
  question: What is the cross-domain footprint of the ARM (Description of Planned Arm) variable — which SDTM domains contain it?
  expected_facts:
  - DM
  - TA
  - TV
  expect_count: 3
  card_applies: true
  expected_sources:
  - VARIABLE_INDEX.md
- id: iv06
  category: impact_variable
  question: If the ARMCD (Planned Arm Code) variable were revised, how many SDTM domains would be impacted?
  expected_facts:
  - DM
  - TA
  - TV
  expect_count: 3
  card_applies: true
  expected_sources:
  - VARIABLE_INDEX.md
- id: iv07
  category: impact_variable
  question: Which SDTM domains is the ELEMENT (Description of Element) variable defined in?
  expected_facts:
  - SE
  - TA
  - TE
  expect_count: 3
  card_applies: true
  expected_sources:
  - VARIABLE_INDEX.md
- id: iv08
  category: impact_variable
  question: How many SDTM domains does the ETCD (Element Code) variable appear in?
  expected_facts:
  - SE
  - TA
  - TE
  expect_count: 3
  card_applies: true
  expected_sources:
  - VARIABLE_INDEX.md
- id: iv09
  category: impact_variable
  question: In which SDTM domains can I find the FOCID (Focus of Study-Specific Interest) variable?
  expected_facts:
  - MB
  - NV
  - OE
  expect_count: 3
  card_applies: true
  expected_sources:
  - VARIABLE_INDEX.md
- id: iv10
  category: impact_variable
  question: If a change were made to the IDVAR (Identifying Variable) variable, what SDTM domains would be affected by it?
  expected_facts:
  - CO
  - RELREC
  - SUPPQUAL
  expect_count: 3
  card_applies: true
  expected_sources:
  - VARIABLE_INDEX.md
- id: ag01
  category: aggregate
  question: Which SDTM variables are used across 3 or more different domains?
  expected_facts:
  - ARM
  - ARMCD
  - DOMAIN
  - ELEMENT
  - EPOCH
  - ETCD
  - FOCID
  - IDVAR
  - IDVARVAL
  - NHOID
  - RDOMAIN
  - SPDEVID
  - STUDYID
  - TAETORD
  - USUBJID
  - VISIT
  - VISITDY
  - VISITNUM
  expect_count: 18
  card_applies: true
  subtype: threshold
  expected_sources:
  - VARIABLE_INDEX.md
- id: ag02
  category: aggregate
  question: Can you list the SDTM variables that appear in at least 4 separate domains?
  expected_facts:
  - DOMAIN
  - EPOCH
  - NHOID
  - SPDEVID
  - STUDYID
  - TAETORD
  - USUBJID
  - VISIT
  - VISITDY
  - VISITNUM
  expect_count: 10
  card_applies: true
  subtype: threshold
  expected_sources:
  - VARIABLE_INDEX.md
- id: ag03
  category: aggregate
  question: Which variables show up in 5 or more domains throughout the SDTM model?
  expected_facts:
  - DOMAIN
  - EPOCH
  - SPDEVID
  - STUDYID
  - TAETORD
  - USUBJID
  - VISIT
  - VISITDY
  - VISITNUM
  expect_count: 9
  card_applies: true
  subtype: threshold
  expected_sources:
  - VARIABLE_INDEX.md
- id: ag04
  category: aggregate
  question: I'm looking for the SDTM variables that are reused across 10 or more domains — which ones are they?
  expected_facts:
  - DOMAIN
  - EPOCH
  - STUDYID
  - TAETORD
  - USUBJID
  - VISIT
  - VISITDY
  - VISITNUM
  expect_count: 8
  card_applies: true
  subtype: threshold
  expected_sources:
  - VARIABLE_INDEX.md
- id: ag05
  category: aggregate
  question: Which SDTM variables are so common that they appear in 40+ domains?
  expected_facts:
  - DOMAIN
  - EPOCH
  - STUDYID
  - TAETORD
  - USUBJID
  expect_count: 5
  card_applies: true
  subtype: threshold
  expected_sources:
  - VARIABLE_INDEX.md
- id: ms01
  category: aggregate
  question: Across all of SDTM, which controlled terminology codelist is the most reused?
  expected_facts:
  - C66742
  - No Yes Response
  expect_count: null
  card_applies: false
  subtype: most_shared
  expected_sources:
  - VARIABLE_INDEX.md
- id: ms02
  category: aggregate
  question: Which single codelist is referenced by the greatest number of variables in SDTM?
  expected_facts:
  - C66742
  - No Yes Response
  expect_count: null
  card_applies: false
  subtype: most_shared
  expected_sources:
  - VARIABLE_INDEX.md
- id: ms03
  category: aggregate
  question: What is the most widely shared codelist across SDTM domains?
  expected_facts:
  - C66742
  - No Yes Response
  expect_count: null
  card_applies: false
  subtype: most_shared
  expected_sources:
  - VARIABLE_INDEX.md
- id: ms04
  category: aggregate
  question: What are the three most frequently reused controlled terminology codelists in SDTM?
  expected_facts:
  - C66742
  - C71620
  - C66789
  expect_count: 3
  card_applies: false
  subtype: most_shared_list
  expected_sources:
  - VARIABLE_INDEX.md
- id: ms05
  category: aggregate
  question: Could you name several of the most commonly shared codelists used throughout the SDTM domains?
  expected_facts:
  - C66742
  - C71620
  - C66789
  - C66728
  - C74456
  expect_count: 5
  card_applies: false
  subtype: most_shared_list
  expected_sources:
  - VARIABLE_INDEX.md
- id: rl01
  category: relationship
  question: Which other SDTM domains fall under the same observation class as the Biospecimen Events (BE) domain?
  expected_facts:
  - AE
  - BS
  - CE
  - DS
  - DV
  - HO
  - MH
  expect_count: 6
  card_applies: false
  expected_sources:
  - domains/BE/
- id: rl02
  category: relationship
  question: What domains does the Microbiology Specimen (MB) domain typically have relationships or links with in an SDTM submission?
  expected_facts:
  - BS
  - CP
  - CV
  - DA
  - DD
  - EG
  - FT
  - GF
  - IE
  - IS
  - LB
  - MI
  - MK
  - MS
  - NV
  - OE
  - PC
  - PE
  - PP
  - QS
  - RE
  - RELSPEC
  - RP
  - RS
  - SC
  - SS
  - TR
  - TU
  - UR
  - VS
  expect_count: 29
  card_applies: false
  expected_sources:
  - domains/MB/
- id: rl03
  category: relationship
  question: Which other SDTM domains share the same observation class as the Findings About Events or Interventions (FA) domain?
  expected_facts:
  - AE
  - CM
  - EC
  - EX
  - ML
  - PR
  - SR
  - SU
  expect_count: 1
  card_applies: false
  expected_sources:
  - domains/FA/
- id: rl04
  category: relationship
  question: In SDTM, which other domains are related to the Exposure as Collected (EC) domain, and which ones belong to the same observation class as it?
  expected_facts:
  - AG
  - CM
  - EX
  - ML
  - PR
  - SU
  expect_count: 6
  card_applies: false
  expected_sources:
  - domains/EC/
- id: rl05
  category: relationship
  question: What domains does the Related Records (RELREC) domain connect to or interact with across an SDTM dataset?
  expected_facts:
  - RELSPEC
  - RELSUB
  - SUPPQUAL
  expect_count: 3
  card_applies: false
  expected_sources:
  - domains/RELREC/
- id: rl06
  category: relationship
  question: Which other SDTM domains is the Comments (CO) domain associated with or linked to?
  expected_facts:
  - DM
  - SE
  - SM
  - SV
  expect_count: 4
  card_applies: false
  expected_sources:
  - domains/CO/
- id: rl07
  category: relationship
  question: What other SDTM domains is the Trial Arms (TA) domain related to or connected with?
  expected_facts:
  - TD
  - TE
  - TI
  - TM
  - TS
  - TV
  expect_count: 6
  card_applies: false
  expected_sources:
  - domains/TA/
- id: rl08
  category: relationship
  question: Which other domains belong to the same observation class as the Disposition (DS) domain in SDTM?
  expected_facts:
  - AE
  - BE
  - CE
  - DM
  - DV
  - HO
  - MH
  expect_count: 6
  card_applies: false
  expected_sources:
  - domains/DS/
- id: rl09
  category: relationship
  question: What other SDTM domains share an observation class with the Microbiology Susceptibility (MS) domain, and which ones does it have relationships with?
  expected_facts:
  - BS
  - CP
  - CV
  - DA
  - DD
  - EG
  - FT
  - GF
  - IE
  - IS
  - LB
  - MB
  - MI
  - MK
  - NV
  - OE
  - PC
  - PE
  - PP
  - QS
  - RE
  - RELSPEC
  - RP
  - RS
  - SC
  - SS
  - TR
  - TU
  - UR
  - VS
  expect_count: 29
  card_applies: false
  expected_sources:
  - domains/MS/
- id: rl10
  category: relationship
  question: Which other SDTM domains are in the same observation class as the Skin Response (SR) domain?
  expected_facts:
  - AE
  - CM
  - FA
  - PR
  expect_count: 1
  card_applies: false
  expected_sources:
  - domains/SR/
