- id: ah01
  category: aggregate_threshold
  question: Which SDTM variables show up in at least two different domains?
  expected_facts:
  - STUDYID
  - DOMAIN
  - USUBJID
  - EPOCH
  - TAETORD
  - VISIT
  - VISITDY
  - VISITNUM
  - SPDEVID
  - NHOID
  - ARM
  - ARMCD
  - ELEMENT
  - ETCD
  - FOCID
  - IDVAR
  - IDVARVAL
  - RDOMAIN
  - IECAT
  - IESCAT
  - IETEST
  - IETESTCD
  - MIDS
  - MIDSTYPE
  expect_count: 24
  card_applies: true
  gold_reading: inclusive
- id: ah02
  category: aggregate_threshold
  question: Can you list the SDTM variables that appear in six or more domains?
  expected_facts:
  - STUDYID
  - DOMAIN
  - USUBJID
  - EPOCH
  - TAETORD
  - VISIT
  - VISITDY
  - VISITNUM
  - SPDEVID
  expect_count: 9
  card_applies: true
  gold_reading: inclusive
- id: ah03
  category: aggregate_threshold
  question: I'm looking for variables that are shared across nine or more SDTM domains
    — which ones qualify?
  expected_facts:
  - STUDYID
  - DOMAIN
  - USUBJID
  - EPOCH
  - TAETORD
  - VISIT
  - VISITDY
  - VISITNUM
  expect_count: 8
  card_applies: true
  gold_reading: inclusive
- id: ah04
  category: aggregate_threshold
  question: Which variables span twelve domains or more within the SDTM standard?
  expected_facts:
  - STUDYID
  - DOMAIN
  - USUBJID
  - EPOCH
  - TAETORD
  - VISIT
  - VISITDY
  - VISITNUM
  expect_count: 8
  card_applies: true
  gold_reading: inclusive
- id: ah05
  category: aggregate_threshold
  question: Which SDTM variables show up in at least 18 different domains?
  expected_facts:
  - STUDYID
  - DOMAIN
  - USUBJID
  - EPOCH
  - TAETORD
  - VISIT
  - VISITDY
  - VISITNUM
  expect_count: 8
  card_applies: true
  gold_reading: inclusive
- id: ah06
  category: aggregate_threshold
  question: Can you list the SDTM variables that appear across 25 or more domains?
  expected_facts:
  - STUDYID
  - DOMAIN
  - USUBJID
  - EPOCH
  - TAETORD
  - VISIT
  - VISITDY
  - VISITNUM
  expect_count: 8
  card_applies: true
  gold_reading: inclusive
- id: ah07
  category: aggregate_threshold
  question: I'm looking for variables that are used in 30-plus domains — which ones
    are those?
  expected_facts:
  - STUDYID
  - DOMAIN
  - USUBJID
  - EPOCH
  - TAETORD
  - VISIT
  - VISITDY
  - VISITNUM
  expect_count: 8
  card_applies: true
  gold_reading: inclusive
- id: ah08
  category: aggregate_threshold
  question: Which variables span 38 domains or more within the SDTM standard?
  expected_facts:
  - STUDYID
  - DOMAIN
  - USUBJID
  - EPOCH
  - TAETORD
  expect_count: 5
  card_applies: true
  gold_reading: inclusive
- id: as01
  category: aggregate_superlative
  question: Which single codelist is tied to more variables than any other?
  expected_facts:
  - C66742
  expect_count: null
  card_applies: false
- id: as02
  category: aggregate_superlative
  question: What codelist gets applied across the broadest range of SDTM domains?
  expected_facts:
  - C66742
  expect_count: null
  card_applies: false
- id: as03
  category: aggregate_superlative
  question: Out of all the controlled terminology sets, which one is reused most frequently
    across different variables?
  expected_facts:
  - C66742
  expect_count: null
  card_applies: false
- id: as04
  category: aggregate_superlative
  question: Could you rank the codelists by how many variables reference each one
    and give me the top few?
  expected_facts:
  - C66742
  - C71620
  - C66789
  - C66728
  - C74456
  expect_count: null
  card_applies: false
- id: as05
  category: aggregate_superlative
  question: What are the top three codelists in terms of how many variables reference
    them?
  expected_facts:
  - C66742
  - C71620
  - C66789
  expect_count: null
  card_applies: false
- id: as06
  category: aggregate_superlative
  question: Could you name the four codelists that get reused by the most variables?
  expected_facts:
  - C66742
  - C71620
  - C66789
  - C66728
  expect_count: null
  card_applies: false
- id: as07
  category: aggregate_superlative
  question: Which codelist would you call the workhorse here — the one tied to more
    variables than any other?
  expected_facts:
  - C66742
  expect_count: null
  card_applies: false
- id: as08
  category: aggregate_superlative
  question: Out of all the codelists, which one is the clear champion when it comes
    to variable usage?
  expected_facts:
  - C66742
  expect_count: null
  card_applies: false
