# ════════════════════════════════════════════════════════════════════════
# Test Set v3 — 140 questions (= v2's 102 preserved verbatim + 38 new q103-q140)
# Created 2026-06-12. Purpose: (a) margin on cross_domain (25->50 q: one miss
#   no longer decides the >=95% gate), (b) long-name single_domain probes
#   q128-q140 (domain referenced ONLY by long name, no code token, no variable
#   names) to exercise the S3 long-name channel end-to-end for the first time.
# Category totals (v3): single_domain (40) / cross_domain (50) / concept (25) / mixed (25)
# Authoring process (anti-overfitting, same as v2): 7 writer agents blind to the
#   retrieval implementation (read knowledge_base/ only), 5 cross themes
#   (var-distribution / codelist-sharing / relationship-machinery / model-concepts
#   / domain-pairs) + 2 long-name single batches; each batch then audited by an
#   independent scientist agent (Rule D) who re-opened every gold file: 37 PASS +
#   1 FIX (q128 facts completed with VSSTRESC) + 0 REJECT. Programmatic check:
#   all facts verbatim-in-gold, all sources exist, no domain-code/variable token
#   in q128-q140 question text. Full audit trail:
#   evidence/checkpoints/testset_v3_authoring_audit.json
# Long-name probe design (q128-q140): 10 names expected to be S3-matchable
#   (multi-word or single word >=10 chars); 3 deliberate boundary probes
#   q134 "Concomitant Medications" (VARIABLE_INDEX long name is
#   "Concomitant/Prior Medications" - natural phrasing differs), q139 "Exposure"
#   + q140 "Comments" (short single words excluded by the S3 collision guard).
#   Boundary probes are honest: they may fail; failures document the boundary.
# ════════════════════════════════════════════════════════════════════════

# Test Set v2 — 102 questions (= v1's 53 preserved verbatim + 49 new)
# Format: id / category / question / expected_facts (substring match) / expected_sources (partial path match)
# Category totals (v2): single_domain (27) / cross_domain (25) / concept (25) / mixed (25)
# v1 block (q01-q48, s01-s05) is unchanged below; new questions (q54-q102) appended at the end.
# Every new expected_sources path was opened and content-verified against the KB (see audit note at EOF).
# mixed purity (v2 revision): all mixed questions require a value/term that lives ONLY in a
#   terminology file (not the codelist code printed in spec.md), forcing a genuine ≥2-source answer.
# Original v1 header (Phase 1D): overall ≥ 85%, RELATION (cross_domain) recall → Phase 2 KG gate
# Scientist-authored questions (s01-s05) merged separately for Rule A 4.c

# ════════════════════════════════════════════════════════════════════════
# Single Domain (12) — specific variable/domain lookups
# ════════════════════════════════════════════════════════════════════════

- id: q01
  category: single_domain
  question: "What is AETERM and what are its variable attributes in the AE domain?"
  expected_facts:
    - "Topic"
    - "Char"
    - "Req"
    - "Verbatim"
  expected_sources:
    - "domains/AE/spec.md"

- id: q02
  category: single_domain
  question: "What are the required (Core=Req) variables in the DM domain?"
  # fixed 2026-06-09 (answering-guardrail gold audit): question asks for Core=Req only.
  # Per domains/DM/spec.md the 7 Req variables are exactly those below; RFSTDTC/AGE/ARM
  # (old gold) are Core=Exp, not Req, and DOMAIN/SUBJID/SITEID/COUNTRY were missing.
  # Scientist-verified against KB. See KICKOFF_answering_guardrail.md §3.
  expected_facts:
    - "STUDYID"
    - "DOMAIN"
    - "USUBJID"
    - "SUBJID"
    - "SITEID"
    - "SEX"
    - "COUNTRY"
  expected_sources:
    - "domains/DM/spec.md"

- id: q03
  category: single_domain
  question: "What are the key assumptions for adverse event data collection and coding?"
  expected_facts:
    - "AETERM"
    - "MedDRA"
    - "AEDECOD"
  expected_sources:
    - "domains/AE/assumptions.md"

- id: q04
  category: single_domain
  question: "What is the purpose of the TV (Trial Visits) domain and what variables does it contain?"
  expected_facts:
    - "VISITNUM"
    - "VISIT"
  expected_sources:
    - "domains/TV/spec.md"

- id: q05
  category: single_domain
  question: "In the PE (Physical Examination) domain, what is the structure of the dataset, what is the role of the PETESTCD variable, and what value should PETESTCD have when the results of the entire physical examination are represented in one record?"
  expected_facts:
    - "PETESTCD"
    - "Topic"
    - "PHYSEXAM"
  expected_sources:
    - "domains/PE/spec.md"

- id: q21
  category: single_domain
  question: "What is the LBTESTCD variable in the LB (Laboratory Test Results) domain? Describe its role, controlled terminology codelist code, and naming constraints."
  expected_facts:
    - "Topic"
    - "C65047"
    - "8 characters"
  expected_sources:
    - "domains/LB/spec.md"

- id: q22
  category: single_domain
  question: "What is the VS (Vital Signs) domain and what are some examples of VSTESTCD values? Include the codelist code."
  expected_facts:
    - "Findings"
    - "VSTESTCD"
    - "C66741"
  expected_sources:
    - "domains/VS/spec.md"

- id: q23
  category: single_domain
  question: "In the CM (Concomitant Medications) domain, what is the CMTRT variable and what observation class does CM belong to?"
  expected_facts:
    - "CMTRT"
    - "Interventions"
    - "Topic"
    - "Req"
  expected_sources:
    - "domains/CM/spec.md"

- id: q24
  category: single_domain
  question: "What is the EX (Exposure) domain used for and what is the Topic variable EXTRT?"
  expected_facts:
    - "EXTRT"
    - "Interventions"
    - "protocol-specified"
  expected_sources:
    - "domains/EX/spec.md"

- id: q25
  category: single_domain
  question: "In the MH (Medical History) domain, what is the role of MHTERM and what assumptions guide medical history data collection?"
  expected_facts:
    - "MHTERM"
    - "Topic"
    - "Verbatim"
  expected_sources:
    - "domains/MH/assumptions.md"

- id: q26
  category: single_domain
  question: "Describe the EG (ECG Test Results) domain structure and the EGTESTCD variable, including its controlled terminology codelist codes."
  expected_facts:
    - "EGTESTCD"
    - "Findings"
    - "C71153"
  expected_sources:
    - "domains/EG/spec.md"

- id: q27
  category: single_domain
  question: "What is the IE (Inclusion/Exclusion) domain and what is the role and maximum length of the IETEST variable?"
  expected_facts:
    - "IETEST"
    - "200"
    - "Synonym Qualifier"
  expected_sources:
    - "domains/IE/spec.md"

# ════════════════════════════════════════════════════════════════════════
# Cross Domain (12) — relationships across domains (Phase 2 KG decision gate)
# ════════════════════════════════════════════════════════════════════════

- id: q06
  category: cross_domain
  question: "What is SUPPQUAL and when should supplemental qualifiers be used instead of adding variables to a domain?"
  expected_facts:
    - "QNAM"
    - "QVAL"
    - "non-standard"
  expected_sources:
    - "domains/SUPPQUAL/spec.md"

- id: q07
  category: cross_domain
  question: "Which SDTM domains use the EPOCH variable and what is its purpose?"
  expected_facts:
    - "EPOCH"
    - "Timing"
  expected_sources:
    - "VARIABLE_INDEX.md"

- id: q08
  category: cross_domain
  question: "How does USUBJID serve as a linking key across SDTM domains?"
  expected_facts:
    - "USUBJID"
    - "Identifier"
    - "unique"
  expected_sources:
    - "domains/DM/spec.md"

- id: q09
  category: cross_domain
  question: "How are adverse events linked to concomitant medications using RELREC?"
  expected_facts:
    - "RELREC"
    - "IDVAR"
    - "IDVARVAL"
  expected_sources:
    - "domains/RELREC/spec.md"

- id: q10
  category: cross_domain
  question: "In oncology studies, how are the TR (Tumor/Lesion Results) domain and RS (Disease Response) domain linked together, and which specific identifier variables are used for each linkage direction?"
  expected_facts:
    - "TRLNKID"
    - "TRLNKGRP"
  expected_sources:
    - "domains/TR/assumptions.md"
    - "domains/TR/spec.md"

- id: q28
  category: cross_domain
  question: "What is the FA (Findings About Events or Interventions) domain and how does it link to parent domains like AE or CM using FAOBJ?"
  expected_facts:
    - "Findings About"
    - "FAOBJ"
    - "FATESTCD"
  expected_sources:
    - "domains/FA/spec.md"

- id: q29
  category: cross_domain
  question: "How do the four Trial Design domains TA (Trial Arms), TE (Trial Elements), TV (Trial Visits), and TI (Trial Inclusion/Exclusion) work together to define a study design?"
  expected_facts:
    - "TA"
    - "TE"
    - "TV"
    - "TI"
  expected_sources:
    - "domains/TA/assumptions.md"
    - "domains/TE/assumptions.md"

- id: q30
  category: cross_domain
  question: "What is the CO (Comments) domain and how does it reference records in other SDTM domains? Describe the RDOMAIN and IDVAR mechanism."
  expected_facts:
    - "COVAL"
    - "RDOMAIN"
    - "IDVAR"
  expected_sources:
    - "domains/CO/spec.md"
    - "domains/CO/assumptions.md"

- id: q31
  category: cross_domain
  question: "How are the EC (Exposure as Collected) and EX (Exposure) domains different in purpose, and when should each be used?"
  expected_facts:
    - "collected"
    - "EX"
    - "EC"
  expected_sources:
    - "domains/EC/assumptions.md"

- id: q32
  category: cross_domain
  question: "How is VISIT and VISITNUM used consistently across observation-class domains, and what role does the SV (Subject Visits) domain play in tracking actual visit dates?"
  expected_facts:
    - "VISIT"
    - "VISITNUM"
    - "SV"
  expected_sources:
    - "domains/SV/spec.md"
    - "domains/SV/assumptions.md"

- id: q33
  category: cross_domain
  question: "What is the RELSPEC domain and how does it define relationships between datasets at the study level, as opposed to RELREC which links individual records?"
  expected_facts:
    - "RELSPEC"
    - "RELREC"
  expected_sources:
    - "domains/RELSPEC/spec.md"

- id: q34
  category: cross_domain
  question: "Which SDTM domains share the controlled terminology codelist for NY (No Yes Response, C66742), and what variable typically uses this codelist in those domains?"
  expected_facts:
    - "C66742"
    - "NY"
  expected_sources:
    - "VARIABLE_INDEX.md"

# ════════════════════════════════════════════════════════════════════════
# Concept (12) — SDTM model concepts, rules, and structural patterns
# ════════════════════════════════════════════════════════════════════════

- id: q11
  category: concept
  question: "What are the three observation classes in the SDTM model?"
  expected_facts:
    - "Interventions"
    - "Events"
    - "Findings"
  expected_sources:
    - "model/02_observation_classes.md"

- id: q12
  category: concept
  question: "What do the Core designations Req, Exp, and Perm mean in SDTM?"
  expected_facts:
    - "Required"
    - "Expected"
    - "Permissible"
  expected_sources:
    - "chapters/ch04"

- id: q13
  category: concept
  question: "What is the difference between Topic, Qualifier, and Identifier variable roles?"
  expected_facts:
    - "Topic"
    - "Qualifier"
    - "Identifier"
  expected_sources:
    - "model/01_concepts_and_terms.md"

- id: q14
  category: concept
  question: "How should a sponsor create a new custom domain in SDTM?"
  expected_facts:
    - "observation class"
  expected_sources:
    - "chapters/ch02"

- id: q15
  category: concept
  question: "What are the three SDTM Core designation categories for variables, and what are the rules for handling a Permissible variable when a study did not collect the corresponding data item?"
  expected_facts:
    - "Req"
    - "Exp"
    - "Perm"
  expected_sources:
    - "chapters/ch04_general_assumptions.md"

- id: q35
  category: concept
  question: "What is Controlled Terminology (CT) in SDTM and how does it constrain the values that variables can contain?"
  expected_facts:
    - "codelist"
    - "Controlled Terms"
  expected_sources:
    - "chapters/ch04"

- id: q36
  category: concept
  question: "What are the timing variables in SDTM (such as --DTC, --STDTC, --ENDTC) and how are they structured across domains?"
  expected_facts:
    - "DTC"
    - "STDTC"
    - "ENDTC"
    - "Timing"
  expected_sources:
    - "chapters/ch04"

- id: q37
  category: concept
  question: "What are the Special-Purpose datasets in SDTM and which domains fall into this category?"
  # fixed 2026-06-09 (answering-guardrail gold audit): SUPPQUAL (old gold) is NOT a
  # special-purpose domain -- it is a relationship dataset (model/06_relationship_datasets.md
  # §6.2), absent from model/03_special_purpose_domains.md. Replaced with SE, a true
  # special-purpose member (DM/CO/SE/SV/SM per model/03). Scientist-verified against KB.
  expected_facts:
    - "Special-Purpose"
    - "DM"
    - "CO"
    - "SE"
  expected_sources:
    # fixed 2026-06-08 (T1 gold-label audit): "model/04_special_purpose.md" does not
    # exist in KB; correct file is model/03_special_purpose_domains.md. See eval/ablation_t1/review_T1.md
    - "model/03_special_purpose_domains.md"

- id: q38
  category: concept
  question: "How are SDTM domain abbreviation codes assigned? What are the rules for the two-character domain code?"
  expected_facts:
    # 曾于 2026-08-04 改为 "2-character", 经独立复核**撤回**: "Two-character" 在 63 个
    # KB 文件中存在且 check_fact_recall 大小写不敏感 → 原 fact 本就可命中。当时的
    # "全库零命中"结论来自大小写敏感 grep, 是错的。
    - "two-character"
    - "DOMAIN"
  expected_sources:
    - "chapters/ch02"

- id: q39
  category: concept
  question: "What is the Findings About observation class and how does it differ from the standard Findings class?"
  expected_facts:
    - "Findings About"
    - "FAOBJ"
  expected_sources:
    - "model/02_observation_classes.md"

- id: q40
  category: concept
  question: "What is the difference between collected data and derived data in SDTM, and how is the origin of a variable value indicated?"
  expected_facts:
    - "Collected"
    - "Derived"
    - "Origin"
  expected_sources:
    - "chapters/ch04"

- id: q41
  category: concept
  question: "What are the Trial Design Model datasets in SDTM and what kind of study-level information do they capture?"
  expected_facts:
    - "Trial Design"
    - "TA"
    - "TE"
    - "TV"
  expected_sources:
    - "model/05_study_level_data.md"

# ════════════════════════════════════════════════════════════════════════
# Mixed (12) — combining domain facts + terminology/concepts
# ════════════════════════════════════════════════════════════════════════

- id: q16
  category: mixed
  question: "What values are allowed for AESEV and what is its codelist code?"
  expected_facts:
    - "C66769"
    - "MILD"
    - "MODERATE"
    - "SEVERE"
  expected_sources:
    - "domains/AE/spec.md"
    - "terminology/core/ae.md"

- id: q17
  category: mixed
  question: "How are date and time variables formatted in SDTM and what suffix do they use?"
  expected_facts:
    - "ISO 8601"
    - "DTC"
  expected_sources:
    - "chapters/ch04"

- id: q18
  category: mixed
  question: "Explain the MedDRA coding chain for adverse events from verbatim term to dictionary term."
  expected_facts:
    - "AETERM"
    - "AEMODIFY"
    - "AEDECOD"
    - "Preferred Term"
  expected_sources:
    - "domains/AE/spec.md"
    - "domains/AE/assumptions.md"

- id: q19
  category: mixed
  question: "What controlled terminology codelist is used for DSDECOD when DSCAT equals 'DISPOSITION EVENT', and list specific CDISC Submission Values from that codelist for reasons of non-completion."
  expected_facts:
    - "NCOMPLT"
    - "C66727"
  expected_sources:
    - "domains/DS/assumptions.md"
    - "terminology/core/disposition.md"

- id: q20
  category: mixed
  question: "In the DM domain, what is the difference between the RFSTDTC/RFENDTC reference period pair and the RFXSTDTC/RFXENDTC pair, and under what circumstances will RFSTDTC be null?"
  expected_facts:
    - "sponsor-defined"
    - "screen failure"
  expected_sources:
    - "domains/DM/assumptions.md"
    - "domains/DM/spec.md"

- id: q42
  category: mixed
  question: "In the LB domain, how are normal ranges represented using LBORNRLO and LBORNRHI, and what is the LBNRIND variable used for?"
  expected_facts:
    - "LBORNRLO"
    - "LBORNRHI"
    - "LBNRIND"
  expected_sources:
    - "domains/LB/spec.md"
    - "domains/LB/assumptions.md"

- id: q43
  category: mixed
  question: "What is the controlled terminology codelist for the SEX variable in the DM domain? Provide the codelist code and describe the Core designation."
  expected_facts:
    - "SEX"
    - "C66731"
    - "Req"
  # 曾于 2026-08-04 试图放宽为 OR (加 VARIABLE_INDEX.md), 经独立复核**撤回**:
  # 实测召回的 15 个 chunk 中 "Record Qualifier" 0 次、完整 SEX 行 0 次 —— 含答案的
  # chunk 在索引里但未被召回。source 匹配是**路径子串**, VARIABLE_INDEX 有 222 chunk,
  # 任一命中即算 → 判别力≈0。放宽 = 把正确的 true negative 改成 false positive。
  # 若将来要放宽, 前提是把 source 判据下沉到 chunk/section 粒度 (metadata 已有 section)。
  expected_sources:
    - "domains/DM/spec.md"

- id: q44
  category: mixed
  question: "In the VS domain, what is the controlled terminology codelist code for VSTESTCD, and give examples of standard vital signs test codes like systolic and diastolic blood pressure."
  expected_facts:
    - "C66741"
    - "SYSBP"
    - "DIABP"
  expected_sources:
    - "domains/VS/spec.md"

- id: q45
  category: mixed
  question: "What is the RACE variable in the DM domain, what codelist does it use, and what is its Core designation?"
  expected_facts:
    - "RACE"
    - "C74457"
    - "Exp"
  expected_sources:
    - "domains/DM/spec.md"

- id: q46
  category: mixed
  question: "What is the AEOUT (Outcome of Adverse Event) variable in the AE domain and what controlled terminology codelist code does it use?"
  expected_facts:
    - "AEOUT"
    - "C66768"
    - "Perm"
  expected_sources:
    - "domains/AE/spec.md"

- id: q47
  category: mixed
  question: "How do QS (Questionnaires) domains handle instrument-specific variables using QSCAT, and what role does QSTESTCD play in organizing question-level data?"
  expected_facts:
    - "QSTESTCD"
    - "QSCAT"
    - "Topic"
  expected_sources:
    - "domains/QS/spec.md"
    - "domains/QS/assumptions.md"

- id: q48
  category: mixed
  question: "What is the FATESTCD variable's controlled terminology codelist code in the FA domain, and give examples of standard FA test codes?"
  expected_facts:
    - "FATESTCD"
    - "C101832"
  expected_sources:
    - "domains/FA/spec.md"

# ════════════════════════════════════════════════════════════════════════
# Scientist-authored (5) — Rule A 4.c independence check
# Written by scientist subagent WITHOUT seeing main's 48 questions above
# Topic overlap: 5/5 = 100% ≥ 50% threshold → PASS
# ════════════════════════════════════════════════════════════════════════

- id: s01
  category: single_domain
  question: "In the DM domain, what is the controlled terminology codelist code for the SEX variable, and what are its four permitted submission values?"
  expected_facts:
    - "C66731"
    - "F"
    - "M"
    - "U"
    - "UNDIFFERENTIATED"
  expected_sources:
    - "terminology/core/dm.md"
    - "domains/DM/spec.md"

- id: s02
  category: concept
  question: "What is the SUPPQUAL variable QNAM and what character constraints apply to it? What is the maximum length and what characters are allowed?"
  expected_facts:
    - "QNAM"
    - "8 characters"
    - "letters, numbers, or underscores"
    - "cannot start with a number"
    - "Qualifier Variable Name"
  expected_sources:
    - "domains/SUPPQUAL/spec.md"
    - "model/06_relationship_datasets.md"

- id: s03
  category: cross_domain
  question: "The DM variable RFXSTDTC is defined as equal to the earliest value of which variable in the EX domain? Similarly, RFXENDTC is equal to the latest value of which EX variable (or which fallback variable if that is not collected)?"
  expected_facts:
    - "EXSTDTC"
    - "RFXSTDTC"
    - "EXENDTC"
    - "RFXENDTC"
    - "earliest"
    - "latest"
  expected_sources:
    - "domains/DM/spec.md"
    - "domains/EX/spec.md"

- id: s04
  category: mixed
  question: "In the AE domain, what is the controlled terminology codelist code for the AEACN (Action Taken with Study Treatment) variable, and what ICH E2B example values does the CDISC Notes field list for this variable?"
  expected_facts:
    - "C66767"
    - "DRUG WITHDRAWN"
    - "DOSE REDUCED"
    - "DOSE INCREASED"
    - "DOSE NOT CHANGED"
    - "UNKNOWN"
    - "NOT APPLICABLE"
  expected_sources:
    - "domains/AE/spec.md"
    - "terminology/core/ae.md"

- id: s05
  category: single_domain
  question: "In the VS domain, what is the controlled terminology codelist code for the VSTESTCD variable? Name the codelist, state whether it is extensible, and give three example TESTCD values listed for blood pressure and heart rate."
  expected_facts:
    - "C66741"
    - "Vital Signs Test Code"
    - "Extensible: Yes"
    - "SYSBP"
    - "DIABP"
    - "HR"
  expected_sources:
    - "domains/VS/spec.md"
    - "terminology/core/vs.md"

# ════════════════════════════════════════════════════════════════════════
# v2 NEW QUESTIONS (q54-q101) — 12 per category, all gold paths content-verified
# ════════════════════════════════════════════════════════════════════════

# ──────────────────────────────────────────────────────────────────────
# Single Domain (new: q54-q65) — single-domain variable/structure lookups
# ──────────────────────────────────────────────────────────────────────

- id: q54
  category: single_domain
  question: "In the DV (Protocol Deviations) domain, which observation class does it belong to and what is the Topic variable DVTERM?"
  expected_facts:
    - "Events"
    - "DVTERM"
    - "Protocol Deviation Term"
    - "Topic"
  expected_sources:
    - "domains/DV/spec.md"

- id: q55
  category: single_domain
  question: "What is the structure and observation class of the DS (Disposition) domain, and what is the role of the DSTERM variable?"
  expected_facts:
    - "Events"
    - "DSTERM"
    - "Topic"
    - "disposition"
  expected_sources:
    - "domains/DS/spec.md"

- id: q56
  category: single_domain
  question: "In the SU (Substance Use) domain, what observation class is it and what is the SUTRT variable?"
  expected_facts:
    - "Interventions"
    - "SUTRT"
    - "Reported Name of Substance"
    - "Topic"
  expected_sources:
    - "domains/SU/spec.md"

- id: q57
  category: single_domain
  question: "What is the PR (Procedures) domain used for, and what is the PRTRT topic variable along with its Core designation?"
  expected_facts:
    - "Interventions"
    - "PRTRT"
    - "Reported Name of Procedure"
    - "Req"
  expected_sources:
    - "domains/PR/spec.md"

- id: q58
  category: single_domain
  question: "Describe the TS (Trial Summary) domain structure and the TSPARMCD variable, including its controlled terminology codelist code and length limit."
  expected_facts:
    - "Trial Summary"
    - "TSPARMCD"
    - "C66738"
    - "8 characters"
  expected_sources:
    - "domains/TS/spec.md"

- id: q59
  category: single_domain
  question: "In the DD (Death Details) domain, what is the DDTESTCD variable and its controlled terminology codelist code?"
  expected_facts:
    - "DDTESTCD"
    - "C116108"
    - "Topic"
  expected_sources:
    - "domains/DD/spec.md"

- id: q60
  category: single_domain
  question: "What is the CE (Clinical Events) domain, which observation class does it belong to, and what is the CETERM variable?"
  expected_facts:
    - "Events"
    - "CETERM"
    - "Topic"
    - "Clinical Event"
  expected_sources:
    - "domains/CE/spec.md"

- id: q61
  category: single_domain
  question: "In the MB (Microbiology Specimen) domain, what is the MBTESTCD variable, what observation class is MB, and what is the codelist code for MBTESTCD?"
  expected_facts:
    - "Findings"
    - "MBTESTCD"
    - "C120527"
    - "Topic"
  expected_sources:
    - "domains/MB/spec.md"

- id: q62
  category: single_domain
  question: "What is the SS (Subject Status) domain, what is the SSTESTCD variable, and what controlled terminology codelist does it use?"
  expected_facts:
    - "SSTESTCD"
    - "C124305"
    - "Findings"
    - "Topic"
  expected_sources:
    - "domains/SS/spec.md"

- id: q63
  category: single_domain
  question: "In the SC (Subject Characteristics) domain, what observation class is it and what is its dataset structure?"
  expected_facts:
    - "Findings"
    - "one record per characteristic"
    - "Subject Characteristics"
  expected_sources:
    - "domains/SC/spec.md"

- id: q64
  category: single_domain
  question: "What is the PC (Pharmacokinetics Concentrations) domain used for and what is the structure of one record in this dataset?"
  expected_facts:
    - "Findings"
    - "concentration"
    - "analyte"
  expected_sources:
    - "domains/PC/spec.md"

- id: q65
  category: single_domain
  question: "In the DA (Product Accountability) domain, what observation class does it belong to and what is the structure of the dataset?"
  expected_facts:
    - "Findings"
    - "Product Accountability"
    - "per subject"
  expected_sources:
    - "domains/DA/spec.md"

# ──────────────────────────────────────────────────────────────────────
# Cross Domain (new: q66-q77) — relationships / distribution across domains
# ──────────────────────────────────────────────────────────────────────

- id: q66
  category: cross_domain
  question: "Which SDTM domains include the VISITNUM timing variable?"
  expected_facts:
    - "VISITNUM"
    - "Visit Number"
    - "LB"
    - "VS"
  expected_sources:
    - "VARIABLE_INDEX.md"

- id: q67
  category: cross_domain
  question: "Many SDTM variables use the No Yes Response codelist C66742. How many variables reference it and give some examples of AE seriousness variables that use it."
  expected_facts:
    - "C66742"
    - "AESER"
    - "AESDTH"
  expected_sources:
    - "VARIABLE_INDEX.md"

- id: q68
  category: cross_domain
  question: "Which domains use the Completion Status codelist (C66789) for their --STAT variable, and what does --STAT indicate?"
  expected_facts:
    - "C66789"
    - "STAT"
    - "Completion Status"
  expected_sources:
    - "VARIABLE_INDEX.md"

- id: q69
  category: cross_domain
  question: "The dose units codelist C71620 is shared across many Intervention and Findings domains. Which variables such as EXDOSU and CMDOSU reference it?"
  expected_facts:
    - "C71620"
    - "EXDOSU"
    - "CMDOSU"
  expected_sources:
    - "VARIABLE_INDEX.md"

- id: q70
  category: cross_domain
  question: "How is the RELSUB (Related Subjects) dataset used to represent relationships between two subjects, and what does the RSUBJID variable hold?"
  expected_facts:
    - "RSUBJID"
    - "USUBJID"
    - "SREL"
  expected_sources:
    - "domains/RELSUB/spec.md"

- id: q71
  category: cross_domain
  question: "What is the EVAL (Evaluator) codelist C78735 and which domains' --EVAL variables share it?"
  expected_facts:
    - "C78735"
    - "EVAL"
    - "PE"
  expected_sources:
    - "VARIABLE_INDEX.md"

- id: q72
  category: cross_domain
  question: "How do the PC (Pharmacokinetics Concentrations) and PP (Pharmacokinetic Parameters) domains relate to each other, and why are they kept as two separate domains?"
  expected_facts:
    - "PC"
    - "PP"
    - "parameter"
  expected_sources:
    - "chapters/ch08_relationships.md"

- id: q73
  category: cross_domain
  question: "Which special-purpose and relationship domains carry the RDOMAIN variable, and what does RDOMAIN identify?"
  expected_facts:
    - "RDOMAIN"
    - "parent"
    - "2-character"
  expected_sources:
    - "model/06_relationship_datasets.md"

- id: q74
  category: cross_domain
  question: "How are Supplemental Qualifier datasets named per parent domain (for example for AE and CM), and what variable ties each SUPP-- record back to its parent domain?"
  expected_facts:
    - "suppae"
    - "RDOMAIN"
    - "supp--"
  expected_sources:
    - "model/06_relationship_datasets.md"

- id: q75
  category: cross_domain
  question: "In SDTM, which identifier variables besides USUBJID can identify the source of a record across the general observation classes (for example for pooled or device data)?"
  expected_facts:
    - "USUBJID"
    - "POOLID"
    - "SPDEVID"
  expected_sources:
    - "model/02_observation_classes.md"

- id: q76
  category: cross_domain
  question: "How do the AP (Associated Persons) domains link non-subject persons back to study subjects, and what role do RSUBJID and SREL play?"
  expected_facts:
    - "APID"
    - "RSUBJID"
    - "SREL"
  expected_sources:
    - "model/04_associated_persons.md"

- id: q77
  category: cross_domain
  question: "The EPOCH timing variable appears in many domains. List several domains where EPOCH is used and state what kind of variable it is."
  expected_facts:
    - "EPOCH"
    - "Timing"
    - "AE"
    - "EX"
  expected_sources:
    - "VARIABLE_INDEX.md"

# ──────────────────────────────────────────────────────────────────────
# Concept (new: q78-q89) — SDTM model concepts, rules, structural patterns
# ──────────────────────────────────────────────────────────────────────

- id: q78
  category: concept
  question: "What are the rules for values of --TESTCD variables in SDTM? Describe the maximum length and which characters are allowed."
  expected_facts:
    - "8 characters"
    - "cannot start with a number"
    - "letters, numbers, or underscores"
  expected_sources:
    - "chapters/ch04_general_assumptions.md"

- id: q79
  category: concept
  question: "How does SDTM represent a missing value, and what should be done when a test is not performed?"
  expected_facts:
    - "null"
    - "NOT DONE"
    - "STAT"
    - "REASND"
  expected_sources:
    - "chapters/ch04_general_assumptions.md"

- id: q80
  category: concept
  question: "What is the convention for using 'Yes' and 'No' values in SDTM variables, and when is it acceptable to populate only one value?"
  expected_facts:
    - "Yes"
    - "No"
    - "single checkbox"
  expected_sources:
    - "chapters/ch04_general_assumptions.md"

- id: q81
  category: concept
  question: "What rules govern the two-character DOMAIN code in SDTM? What characters are allowed for the first and second characters?"
  expected_facts:
    - "2-character"
    - "A-Z"
    - "0-9"
  expected_sources:
    - "chapters/ch04_general_assumptions.md"

- id: q82
  category: concept
  question: "Which identifier variables are required in all domains based on the three general observation classes, and which subject-level identifier must each include?"
  expected_facts:
    - "STUDYID"
    - "DOMAIN"
    - "SEQ"
    - "USUBJID"
  expected_sources:
    - "model/02_observation_classes.md"

- id: q83
  category: concept
  question: "What is RELREC and how is it used to relate records or datasets to one another in SDTM? What does the RDOMAIN variable do in RELREC?"
  expected_facts:
    - "RELREC"
    - "RDOMAIN"
    - "Identifier"
  expected_sources:
    - "model/06_relationship_datasets.md"

- id: q84
  category: concept
  question: "When deciding whether data belong to the Events, Interventions, or Findings observation class, what is the definition of an intervention versus an event?"
  expected_facts:
    - "intervention"
    - "event"
    - "physiological effect"
  expected_sources:
    - "chapters/ch08_relationships.md"

- id: q85
  category: concept
  question: "What are Associated Persons in SDTM, and how are AP domains named relative to the standard domain codes?"
  expected_facts:
    - "Associated Persons"
    - "AP"
    - "APDM"
  expected_sources:
    - "model/04_associated_persons.md"

- id: q86
  category: concept
  question: "What is an Expected (Exp) Core variable in SDTM, and what must be done in the Define-XML when a study does not collect the data item for an Expected variable?"
  expected_facts:
    - "Expected"
    - "null"
    - "Define-XML"
  expected_sources:
    - "chapters/ch04_general_assumptions.md"

- id: q87
  category: concept
  question: "How does SDTM decide whether assessments of an event should be stored as Supplemental Qualifiers versus in the Findings About (FA) domain?"
  expected_facts:
    - "Findings About"
    - "supplemental qualifier"
    - "event"
  expected_sources:
    - "chapters/ch08_relationships.md"

- id: q88
  category: concept
  question: "What distinguishes ETCD, TSPARMCD, and ARMCD from --TESTCD with respect to character restrictions and maximum lengths in SDTM?"
  expected_facts:
    - "ETCD"
    - "TSPARMCD"
    - "ARMCD"
    - "20 characters"
  expected_sources:
    - "chapters/ch04_general_assumptions.md"

- id: q89
  category: concept
  question: "What are the timing variables grouped under Relative Timing in SDTM (such as --STRF, --ENRF, --STRTPT, --ENRTPT) and what kinds of values do they take?"
  expected_facts:
    - "STRF"
    - "ENRF"
    - "STRTPT"
    - "BEFORE"
  expected_sources:
    - "model/02_observation_classes.md"
    - "chapters/ch04_general_assumptions.md"

# ──────────────────────────────────────────────────────────────────────
# Mixed (new: q90-q99, q101-q102) — domain spec + terminology value combined (genuine >=2 source)
# NOTE: q100 lives physically here but is categorized single_domain (TA ARMCD/ETCD: no CT codelist).
# ──────────────────────────────────────────────────────────────────────

- id: q90
  category: mixed
  question: "In the EX (Exposure) domain, what is the EXROUTE variable and its controlled terminology codelist code, and list some parenteral route-of-administration values from that codelist (for example routes administered under the skin or into a muscle)."
  expected_facts:
    - "EXROUTE"
    - "C66729"
    - "SUBCUTANEOUS"
    - "INTRAMUSCULAR"
  expected_sources:
    - "domains/EX/spec.md"
    - "terminology/core/interventions.md"

- id: q91
  category: mixed
  question: "In the DS (Disposition) domain, which codelist does DSDECOD use for disposition events, and what are some reason-for-non-completion values from that codelist (for example a subject-initiated withdrawal or a physician's decision)?"
  expected_facts:
    - "DSDECOD"
    - "C66727"
    - "WITHDRAWAL BY SUBJECT"
    - "PHYSICIAN DECISION"
  expected_sources:
    - "domains/DS/spec.md"
    - "terminology/core/disposition.md"

- id: q92
  category: mixed
  question: "What is the ETHNIC variable in the DM domain, what controlled terminology codelist code does it use, and what are its permitted values?"
  expected_facts:
    - "ETHNIC"
    - "C66790"
    - "HISPANIC OR LATINO"
  expected_sources:
    - "domains/DM/spec.md"
    - "terminology/core/dm.md"

- id: q93
  category: mixed
  question: "In the EX domain, what is the EXDOSFRM (Dose Form) variable and its controlled terminology codelist code, and give some dose-form values from that codelist (for example a solid oral shell form or a sterile parenteral form)?"
  expected_facts:
    - "EXDOSFRM"
    - "C66726"
    - "CAPSULE"
    - "INJECTION"
  expected_sources:
    - "domains/EX/spec.md"
    - "terminology/core/interventions.md"

- id: q94
  category: mixed
  question: "How does the LB domain distinguish the original result LBORRES from the standardized result LBSTRESC, what codelist does LBSTRESC reference, and what are some of the standard result values in that codelist (for example for positive/negative findings)?"
  expected_facts:
    - "LBORRES"
    - "LBSTRESC"
    - "C102580"
    - "NEGATIVE"
    - "POSITIVE"
  expected_sources:
    - "domains/LB/spec.md"
    - "terminology/core/lb_part4.md"

- id: q95
  category: mixed
  question: "In the DD (Death Details) domain, what is the DDTEST variable and its controlled terminology codelist code, and what are some of the test names defined in that codelist (for example relating to cause of death or age at death)?"
  expected_facts:
    - "DDTEST"
    - "C116107"
    - "Primary Cause of Death"
    - "Age at Death"
  expected_sources:
    - "domains/DD/spec.md"
    - "terminology/core/other_part4.md"

- id: q96
  category: mixed
  question: "In the FA (Findings About) domain, what is the FATEST variable and its controlled terminology codelist code, and give some example test names from that codelist (such as Diameter or Cumulative Exposure)?"
  expected_facts:
    - "FATEST"
    - "C101833"
    - "Diameter"
    - "Cumulative Exposure"
  expected_sources:
    - "domains/FA/spec.md"
    - "terminology/core/findings_about.md"

- id: q97
  category: mixed
  question: "In the SS (Subject Status) domain, what is the SSSTRESC variable, what controlled terminology codelist does it use, and what are the standard subject-status result values in that codelist (such as for a living versus deceased subject)?"
  expected_facts:
    - "SSSTRESC"
    - "C124304"
    - "ALIVE"
    - "DEAD"
  expected_sources:
    - "domains/SS/spec.md"
    - "terminology/core/other_part5.md"

- id: q98
  category: mixed
  question: "In the CM (Concomitant Medications) domain, what is the CMDOSU (Dose Units) variable, what controlled terminology codelist does it use, and give some unit values from that codelist (for example an international unit or a milliequivalent)?"
  expected_facts:
    - "CMDOSU"
    - "C71620"
    - "IU"
    - "mEq"
  expected_sources:
    - "domains/CM/spec.md"
    - "terminology/core/general_part5.md"

- id: q99
  category: mixed
  question: "In the QS (Questionnaires) domain, what is the QSCAT variable used for, what controlled terminology codelist does it reference, and give some example questionnaire short names from that codelist."
  expected_facts:
    - "QSCAT"
    - "C100129"
    - "ACQ"
    - "ACT"
  expected_sources:
    - "domains/QS/spec.md"
    - "terminology/core/qs_part1.md"

- id: q100
  category: single_domain
  question: "In the TA (Trial Arms) domain, what is the ARMCD variable's role and Core designation, and what is the ETCD variable used for?"
  expected_facts:
    - "ARMCD"
    - "Topic"
    - "ETCD"
    - "Element Code"
  expected_sources:
    - "domains/TA/spec.md"

- id: q101
  category: mixed
  question: "What is the TSPARM variable in the TS domain, what is its controlled terminology codelist code, and give some example trial summary parameter names defined in that codelist."
  expected_facts:
    - "TSPARM"
    - "C67152"
    - "Actual Number of Subjects"
    - "Clinical Study Sponsor"
  expected_sources:
    - "domains/TS/spec.md"
    - "terminology/core/trial_design.md"

- id: q102
  category: mixed
  question: "In the VS (Vital Signs) domain, what is the VSPOS variable, what controlled terminology codelist does it use, and list some subject-position values from that codelist (for example a face-down position or a semi-sitting bed position)?"
  expected_facts:
    - "VSPOS"
    - "C71148"
    - "PRONE"
    - "FOWLERS"
  expected_sources:
    - "domains/VS/spec.md"
    - "terminology/core/interventions.md"

# ════════════════════════════════════════════════════════════════════════
# v2 GOLD AUDIT NOTE (self-check per Rule A)
# Each new question's expected_sources file was opened and the expected_facts
# were grep-confirmed present in that file. Flagged-for-recheck items:
#  - q63/q64/q65/q72: facts are lowercased substrings of the structure line /
#    prose (e.g. "one record per characteristic", "concentration", "parameter").
#    Match is case-insensitive per format spec; confirmed present but phrasing-
#    dependent, so re-verify if the matcher becomes case-sensitive.
#  - q92: "HISPANIC OR LATINO" lives in terminology/core/dm.md (codelist C66790);
#    DM/spec.md supplies ETHNIC + C66790 only. Both gold files needed together.
#
# MIXED-PURITY REVISION (post audit feedback): mixed questions previously asked
# only for the codelist *code*, which is printed in spec.md's "Controlled Terms:"
# field → single-source answerable (false mixed). Each mixed question now also asks
# for an actual codelist *value/term*, and — critically — that value was chosen so it
# does NOT appear in the domain spec.md (many spec CDISC Notes leak example values like
# 'Examples: "ORAL", "INTRAVENOUS"'; those leaking values were deliberately avoided).
# A second-source-forcing value lives ONLY in the terminology file. All values were
# opened against the actual codelist table before use:
#   q90 EXROUTE  C66729  -> terminology/core/interventions.md (SUBCUTANEOUS, INTRAMUSCULAR)  [spec leaks ORAL/INTRAVENOUS -> avoided]
#   q91 DSDECOD  C66727  -> terminology/core/disposition.md (WITHDRAWAL BY SUBJECT, PHYSICIAN DECISION)  [spec leaks LOST TO FOLLOW-UP -> avoided]
#   q92 ETHNIC   C66790  -> terminology/core/dm.md (HISPANIC OR LATINO)
#   q93 EXDOSFRM C66726  -> terminology/core/interventions.md (CAPSULE, INJECTION)  [spec leaks TABLET/LOTION -> avoided]
#   q94 LBSTRESC C102580 -> terminology/core/lb_part4.md (NEGATIVE, POSITIVE)
#   q95 DDTEST   C116107 -> terminology/core/other_part4.md (Primary Cause of Death, Age at Death)
#   q96 FATEST   C101833 -> terminology/core/findings_about.md (Diameter, Cumulative Exposure)
#   q97 SSSTRESC C124304 -> terminology/core/other_part5.md (ALIVE, DEAD)  [re-angled from TI/IECAT, whose only 2 values INCLUSION/EXCLUSION are unavoidable substrings of TI spec prose]
#   q98 CMDOSU   C71620  -> terminology/core/general_part5.md (IU, mEq)  [spec leaks ng/mg/mg-per-kg -> avoided]
#   q99 QSCAT    C100129 -> terminology/core/qs_part1.md (ACQ, ACT)  [re-angled from QSORRESU to avoid duplicating q98's C71620]
#   q101 TSPARM  C67152  -> terminology/core/trial_design.md (Actual Number of Subjects, Clinical Study Sponsor)
# q100 (TA ARMCD/ETCD: sponsor-defined, no CT codelist) reclassified mixed -> single_domain.
# q102 (VS VSPOS C71148 -> terminology/core/interventions.md, PRONE, FOWLERS) added new to
#   keep mixed at 25 after moving q100 out  [spec leaks SUPINE/STANDING/SITTING -> avoided].
# ════════════════════════════════════════════════════════════════════════

# ════════════════════════════════════════════════════════════════════════
# v3 NEW QUESTIONS (q103-q140) — appended 2026-06-12, see v3 header at top
# ════════════════════════════════════════════════════════════════════════

# ── batch: cross-vardist ──

- id: q103
  category: cross_domain
  question: "Several of our event and intervention datasets carry TAETORD. According to the variable index, how many SDTM domains include TAETORD, and what is this variable's label?"
  expected_facts:
    - "43"
    - "Planned Order of Element within Arm"
  expected_sources:
    - "VARIABLE_INDEX.md"

- id: q104
  category: cross_domain
  question: "Beyond VISIT and VISITNUM, our schedule-of-activities mapping also populates VISITDY. How many domains carry VISITDY, and what does its label say it represents?"
  expected_facts:
    - "36"
    - "Planned Study Day of Visit"
  expected_sources:
    - "VARIABLE_INDEX.md"

- id: q105
  category: cross_domain
  question: "I noticed the NHOID identifier variable in one of our microbiology datasets. Which SDTM domains include NHOID, and what is its label?"
  expected_facts:
    - "Non-Host Organism Identifier"
    - "GF, IS, MS, OI"
  expected_sources:
    - "VARIABLE_INDEX.md"

- id: q106
  category: cross_domain
  question: "A reviewer asked about the FOCID variable in our ophthalmology data. Which domains is FOCID defined in, and what does the variable capture?"
  expected_facts:
    - "Focus of Study-Specific Interest"
    - "MB, NV, OE"
  expected_sources:
    - "VARIABLE_INDEX.md"

- id: q107
  category: cross_domain
  question: "Which SDTM datasets carry both the ARM and ARMCD variables, and what are the labels of these two variables?"
  expected_facts:
    - "DM, TA, TV"
    - "Description of Planned Arm"
    - "Planned Arm Code"
  expected_sources:
    - "VARIABLE_INDEX.md"

# ── batch: cross-codelist-share ──

- id: q108
  category: cross_domain
  question: "A site recorded route of administration for both concomitant meds and the study treatment. Which SDTM variables are governed by the Route of Administration codelist C66729?"
  expected_facts:
    - "C66729"
    - "CM.CMROUTE"
    - "EX.EXROUTE"
    - "SU.SUROUTE"
  expected_sources:
    - "VARIABLE_INDEX.md"

- id: q109
  category: cross_domain
  question: "We need to report left/right/bilateral consistently wherever anatomical side is collected. Which domain variables reference the Laterality codelist C99073?"
  expected_facts:
    - "C99073"
    - "TU.TULAT"
    - "FA.FALAT"
    - "PE.PELAT"
  expected_sources:
    - "VARIABLE_INDEX.md"

- id: q110
  category: cross_domain
  question: "Several datasets record what kind of specimen was collected and tested. Which variables across the SDTM model draw their values from the Specimen Type codelist C78734?"
  expected_facts:
    - "C78734"
    - "RELSPEC.SPEC"
    - "LB.LBSPEC"
    - "PC.PCSPEC"
  expected_sources:
    - "VARIABLE_INDEX.md"

- id: q111
  category: cross_domain
  question: "Our CRFs capture the subject's body position (e.g., supine vs standing) at the time of measurement. Which domains include a position variable controlled by codelist C71148?"
  expected_facts:
    - "C71148"
    - "VS.VSPOS"
    - "EG.EGPOS"
    - "CV.CVPOS"
  expected_sources:
    - "VARIABLE_INDEX.md"

- id: q112
  category: cross_domain
  question: "When a result needs to be flagged relative to its normal range, which variables in which domains are mapped to the Reference Range Indicator codelist C78736?"
  expected_facts:
    - "C78736"
    - "LB.LBNRIND"
    - "IS.ISNRIND"
    - "OE.OENRIND"
  expected_sources:
    - "VARIABLE_INDEX.md"

# ── batch: cross-relationship ──

- id: q113
  category: cross_domain
  question: "When I build a supplemental qualifier dataset for the Demographics domain, what do I put in the IDVAR and IDVARVAL columns to point each record back to its parent, and why is that handled differently from other domains?"
  expected_facts:
    - "both IDVAR and IDVARVAL will be null"
    - "DM has 1 record per USUBJID"
    - "suppdm.xpt"
  expected_sources:
    - "chapters/ch08_relationships.md"

- id: q114
  category: cross_domain
  question: "If I use RELREC to relate two entire datasets rather than individual records, how should I populate RELTYPE, what happens to USUBJID and IDVARVAL, and is it acceptable to use --SEQ as the join key?"
  expected_facts:
    - "USUBJID and IDVARVAL are null"
    - "ONE and MANY"
    - "--SEQ cannot be used"
  expected_sources:
    - "chapters/ch08_relationships.md"

- id: q115
  category: cross_domain
  question: "Within a SUPP-- dataset, what is the purpose of the QORIG column versus the QEVAL column, and when should QEVAL be left blank?"
  expected_facts:
    - "QORIG is used to indicate the origin of this data"
    - "Should be null for records that contain objectively collected or derived data"
    - "ADJUDICATION COMMITTEE"
  expected_sources:
    - "domains/SUPPQUAL/spec.md"

- id: q116
  category: cross_domain
  question: "In the Related Specimens dataset, how can I tell which row is the originally collected specimen versus a derived aliquot using the PARENT and LEVEL fields, and what does the LEVEL number actually represent?"
  expected_facts:
    - "LEVEL value of \"1\" and a blank value for PARENT indicates a collected sample"
    - "All other values represent a derived sample"
    - "generation number of the sample where the collected sample is considered the first generation"
  expected_sources:
    - "domains/RELSPEC/spec.md"
    - "domains/RELSPEC/examples.md"

- id: q117
  category: cross_domain
  question: "Both the investigator and an independent adjudicator each decide whether the same adverse event is treatment-emergent. How do I store both of their determinations in SUPPAE without one overwriting or losing the other?"
  expected_facts:
    - "separate QNAM values should be used"
    - "AETRTEMI"
    - "AETRTEMA"
    - "first 6 columns (STUDYID...QNAM) should be unique"
  expected_sources:
    - "chapters/ch08_relationships.md"

# ── batch: cross-model-concepts ──

- id: q118
  category: cross_domain
  question: "I'm deriving EPOCH for my subject-level datasets. Which date/time variable should the EPOCH assignment be based on for Findings class domains versus Interventions and Events class domains, and what should I do when an observation's epoch cannot be determined?"
  expected_facts:
    - "When EPOCH is included in a Findings class domain, it should be based on the --DTC variable"
    - "For observations in Interventions or Events class domains, EPOCH should be based on the --STDTC variable"
    - "Sponsors should not impute EPOCH values"
    - "If it is not possible to determine the epoch of an observation, then EPOCH should be null"
  expected_sources:
    - "chapters/ch04_general_assumptions.md"

- id: q119
  category: cross_domain
  question: "We need a dataset-to-dataset link between our tumor identification records and tumor results records. What exactly is the difference between the --LNKID and --LNKGRP variables, and how do they typically come into play in RELREC?"
  expected_facts:
    - "--LNKID is a grouping identifier used to identify a record in one domain that is related to records in another domain, often forming a one-to-many relationship"
    - "--LNKGRP is a grouping identifier used to identify a group of records in one domain that is related to a record in another domain, often forming a many-to-one relationship"
    - "often used in IDVAR in a RELREC relationship when there is a dataset-to-dataset relationship"
  expected_sources:
    - "chapters/ch04_general_assumptions.md"

- id: q120
  category: cross_domain
  question: "In our study, some assessments were performed on a group of associated persons collectively rather than on each individual. How should that group be identified in the AP dataset, and where do we document which persons belong to the group?"
  expected_facts:
    - "Identifier for a single associated person, a group of associated persons, or a pool of associated persons"
    - "If APID identifies a pool, POOLDEF records must exist for each associated person"
    - "One record per pooled subject per pool"
    - "Defines which subjects belong to each pool"
  expected_sources:
    - "model/04_associated_persons.md"
    - "model/06_relationship_datasets.md"

- id: q121
  category: cross_domain
  question: "One of our subjects re-consented partway through the study, so we have two informed consent dates on file. How should RFICDTC in DM be populated in that case, and what period do RFICDTC and RFPENDTC together represent?"
  expected_facts:
    - "from providing informed consent through the last participation event or activity"
    - "RFICDTC should correspond to the date of the informed consent protocol milestone in Disposition (DS)"
    - "In the event that there are multiple informed consents, this will be the date of the first"
    - "RFPENDTC will be the last date of participation for a subject for data included in a submission"
  expected_sources:
    - "domains/DM/assumptions.md"

- id: q122
  category: cross_domain
  question: "Our oncology study switches to monthly telephone contacts after the treatment phase, during which we collect the subject's survival status and any medications taken. Which domains should those collected data be stored in, and what has to happen in Demographics if a subject is reported as dead?"
  expected_facts:
    - "The subject's survival status should be stored in the Subject Status (SS) domain"
    - "Concomitant medications reported during the contact should be stored in the CM domain"
    - "the Demographics (DM) variables DTHDTC and DTHFL must be appropriately populated"
  expected_sources:
    - "chapters/ch04_general_assumptions.md"

# ── batch: cross-domain-pairs ──

- id: q123
  category: cross_domain
  question: "In an oncology RECIST study we capture both which tumors exist and their measurements over time. How should the work be divided between the TU and TR datasets, and what keeps the anatomical location from being stored twice?"
  expected_facts:
    - "only 1 record for each unique tumor/lesion/location of interest"
    - "does not include anatomical location information"
    - "TRLNKID"
  expected_sources:
    - "domains/TU/assumptions.md"
    - "domains/TR/assumptions.md"

- id: q124
  category: cross_domain
  question: "When a subject dies during a trial, where do we record the cause-of-death details versus the disposition event, and how do we avoid re-collating the death flag that already lives in AE?"
  expected_facts:
    - "more than 1 cause of death"
    - "AESDTH"
    - "DS.DSTERM"
    - "RELREC"
  expected_sources:
    - "domains/DD/assumptions.md"

- id: q125
  category: cross_domain
  question: "Our protocol treats certain disease signs and symptoms (like migraine episodes) as efficacy events rather than safety events. How do we decide whether such occurrences belong in CE versus AE?"
  expected_facts:
    - "not considered AEs should be reflected as CEs"
    - "migraine headaches may not be considered to be adverse events per protocol"
    - "all adverse events are recorded in the AE domain"
  expected_sources:
    - "domains/CE/assumptions.md"

- id: q126
  category: cross_domain
  question: "A subject's actual progression through study elements deviated from the assigned arm. Which dataset captures the planned elements versus the elements the subject really experienced, and how is an off-plan period represented?"
  expected_facts:
    - "actually passed through"
    - "UNPLAN"
    - "SEUPDES"
    - "One record per planned Element"
  expected_sources:
    - "domains/SE/assumptions.md"
    - "domains/TE/spec.md"

- id: q127
  category: cross_domain
  question: "We track biospecimens from collection through aliquoting plus the physical characteristics of each sample. Which biospecimen domain holds the handling actions versus the sample characteristics like type and size?"
  expected_facts:
    - "freezing and thawing, aliquoting, and transportation"
    - "actions taken that affect or may affect a specimen"
    - "findings related to specimen handling and specimen characteristics"
    - "type, amount, or size"
  expected_sources:
    - "domains/BE/assumptions.md"
    - "domains/BS/assumptions.md"

# ── batch: single-longname-multi ──

- id: q128
  category: single_domain
  question: "We're standing up the Vital Signs dataset for a new study. What does a single record in this dataset represent, and which of the result-related variables carry an Expected core designation rather than Required?"
  expected_facts:
    - "One record per vital sign measurement per time point per visit per subject"
    - "VSORRES"
    - "VSSTRESC"
    - "VSSTRESN"
  expected_sources:
    - "domains/VS/spec.md"

- id: q129
  category: single_domain
  question: "Which observation class does the Medical History dataset belong to, what does each record correspond to, and which sequence-number identifier is Required in it?"
  expected_facts:
    - "Class: Events"
    - "One record per medical history event per subject"
    - "MHSEQ"
  expected_sources:
    - "domains/MH/spec.md"

- id: q130
  category: single_domain
  question: "In the Laboratory Test Results dataset, how is one record defined, and which two variables hold the lower and upper ends of the reference range in original units?"
  expected_facts:
    - "One record per lab test per time point per visit per subject"
    - "LBORNRLO"
    - "LBORNRHI"
  expected_sources:
    - "domains/LB/spec.md"

- id: q131
  category: single_domain
  question: "When collecting data for the Clinical Events dataset, an event may be prespecified on the CRF or reported spontaneously. Which variable flags that the event was prespecified, which one records whether a solicited event actually happened, and what does one record in this dataset correspond to?"
  expected_facts:
    - "CEPRESP"
    - "CEOCCUR"
    - "One record per event per subject"
  expected_sources:
    - "domains/CE/spec.md"

- id: q132
  category: single_domain
  question: "For the Healthcare Encounters dataset: what does each record represent, what kind of content goes into its topic variable, and which date variable is the only one in the dataset designated Expected?"
  expected_facts:
    - "One record per healthcare encounter per subject"
    - "HOTERM"
    - "Verbatim or preprinted CRF term for the healthcare encounter"
    - "HOSTDTC"
  expected_sources:
    - "domains/HO/spec.md"

- id: q133
  category: single_domain
  question: "Our oncology study uses the Tumor/Lesion Identification dataset. How granular is each record in it, which variable serves as the topic, and what example value does the spec give for that variable?"
  expected_facts:
    - "One record per identified tumor per subject per assessor"
    - "TUTESTCD"
    - "TUMIDENT"
  expected_sources:
    - "domains/TU/spec.md"

- id: q134
  category: single_domain
  question: "In the Concomitant Medications dataset, does each row correspond to one medication overall, or to something finer-grained? And aside from the study, domain, and subject identifiers, which other identifier variable is Required, and what is it for?"
  expected_facts:
    - "One record per recorded intervention occurrence or constant-dosing interval per subject"
    - "CMSEQ"
    - "ensure uniqueness of subject records within a domain"
  expected_sources:
    - "domains/CM/spec.md"

# ── batch: single-longname-word ──

- id: q135
  category: single_domain
  question: "How is the Demographics dataset structured, which class does it belong to, and which variable carries the Topic role in it?"
  expected_facts:
    - "One record per subject"
    - "Special-Purpose"
    - "SUBJID"
  expected_sources:
    - "domains/DM/spec.md"

- id: q136
  category: single_domain
  question: "In the Disposition dataset, the standardized term for each record is drawn from different controlled terminology codelists depending on whether the record is a disposition event, a protocol milestone, or some other kind of event. Which codelist names apply in each of these three cases?"
  expected_facts:
    - "NCOMPLT"
    - "PROTMLST"
    - "OTHEVENT"
  expected_sources:
    - "domains/DS/spec.md"

- id: q137
  category: single_domain
  question: "A site has logged several surgeries for one participant — when building the Procedures dataset, what does a single record represent, and under which general observation class does this dataset fall?"
  expected_facts:
    - "One record per recorded procedure per occurrence per subject"
    - "Interventions"
  expected_sources:
    - "domains/PR/spec.md"

- id: q138
  category: single_domain
  question: "At what level of granularity should records be created in the Questionnaires dataset, and which observation class does it use?"
  expected_facts:
    - "One record per questionnaire per question per time point per visit per subject"
    - "Findings"
  expected_sources:
    - "domains/QS/spec.md"

- id: q139
  category: single_domain
  question: "When dosing data goes into the Exposure dataset, what does a single record cover, and which observation class does the dataset belong to?"
  expected_facts:
    - "One record per protocol-specified study treatment, constant-dosing interval, per subject"
    - "Interventions"
  expected_sources:
    - "domains/EX/spec.md"

- id: q140
  category: single_domain
  question: "In the Comments dataset, what does each record correspond to, what class is it assigned to, and how is free text longer than 200 characters accommodated?"
  expected_facts:
    - "One record per comment per subject"
    - "Special-Purpose"
    - "COVAL1-COVALn"
  expected_sources:
    - "domains/CO/spec.md"
